acceleration_x_mean,acceleration_x_std,acceleration_x_min,acceleration_x_median,acceleration_x_max,acceleration_x_sum,acceleration_y_mean,acceleration_y_std,acceleration_y_min,acceleration_y_median,acceleration_y_max,acceleration_y_sum,acceleration_z_mean,acceleration_z_std,acceleration_z_min,acceleration_z_median,acceleration_z_max,acceleration_z_sum,rssi_Kitchen_AP_mean,rssi_Kitchen_AP_std,rssi_Kitchen_AP_min,rssi_Kitchen_AP_median,rssi_Kitchen_AP_max,rssi_Kitchen_AP_sum,rssi_Lounge_AP_mean,rssi_Lounge_AP_std,rssi_Lounge_AP_min,rssi_Lounge_AP_median,rssi_Lounge_AP_max,rssi_Lounge_AP_sum,rssi_Upstairs_AP_mean,rssi_Upstairs_AP_std,rssi_Upstairs_AP_min,rssi_Upstairs_AP_median,rssi_Upstairs_AP_max,rssi_Upstairs_AP_sum,rssi_Study_AP_mean,rssi_Study_AP_std,rssi_Study_AP_min,rssi_Study_AP_median,rssi_Study_AP_max,rssi_Study_AP_sum
0.3832,0.12023543570844662,0.056,0.436,0.51,7.664,0.8415000000000001,0.0391503512117069,0.726,0.855,0.882,16.830000000000002,0.1046,0.08797522378488162,0.03,0.07,0.334,2.092,-77.4,2.416609194718914,-82.0,-77.0,-75.0,-1548.0,,,,,,0.0,-75.6,1.2,-78.0,-75.0,-75.0,-1512.0,-79.0,4.242640687119285,-87.0,-78.0,-75.0,-1580.0
-0.38020000000000004,0.21411015856329657,-0.57,-0.511,0.07,-7.604000000000001,0.5288999999999999,0.20219740354416027,0.312,0.42,0.88,10.578,0.772,0.19499641022336797,0.304,0.819,1.02,15.440000000000001,-88.8,1.3266499161421597,-91.0,-89.0,-87.0,-1776.0,,,,,,0.0,-83.6,3.720215047547655,-90.0,-84.0,-79.0,-1672.0,-78.0,1.5491933384829668,-81.0,-77.0,-77.0,-1560.0
-0.5344,0.014444376068214243,-0.558,-0.538,-0.498,-10.688,0.3514,0.01847268253394725,0.31,0.353,0.398,7.028,0.8052999999999999,0.009945350672550432,0.792,0.801,0.832,16.105999999999998,-90.6,2.244994432064365,-95.0,-90.0,-89.0,-1812.0,,,,,,0.0,-85.8,0.39999999999999997,-86.0,-86.0,-85.0,-1716.0,-77.8,0.39999999999999997,-78.0,-78.0,-77.0,-1556.0
-0.5455,0.010428326807307101,-0.568,-0.544,-0.524,-10.91,0.3474,0.011867602959317427,0.322,0.349,0.37,6.9479999999999995,0.7953,0.012004582458378146,0.764,0.798,0.812,15.906,-89.8,0.4,-90.0,-90.0,-89.0,-1796.0,,,,,,0.0,-86.75,0.82915619758885,-88.0,,-86.0,-1388.0,-78.0,0.0,-78.0,-78.0,-78.0,-1560.0
-0.5461,0.00560267793113258,-0.56,-0.544,-0.538,-10.922,0.35129999999999995,0.007328710664230091,0.336,0.353,0.36,7.025999999999999,0.7909,0.012672410978184077,0.754,0.794,0.806,15.818000000000001,-90.0,0.0,-90.0,-90.0,-90.0,-1800.0,,,,,,0.0,-87.2,0.7483314773547882,-88.0,-87.0,-86.0,-1744.0,-78.0,0.0,-78.0,-78.0,-78.0,-1560.0
-0.5553999999999999,0.019412367192076268,-0.616,-0.548,-0.538,-11.107999999999999,0.3601,0.01742957257077752,0.34,0.353,0.424,7.202,0.7906000000000001,0.021176401960673122,0.724,0.797,0.816,15.812000000000001,-91.2,1.4696938456699067,-93.0,-90.0,-90.0,-1824.0,,,,,,0.0,-86.6,1.0198039027185568,-88.0,-87.0,-85.0,-1732.0,-78.0,0.6324555320336759,-79.0,-78.0,-77.0,-1560.0
-0.6564000000000001,0.06021826965298819,-0.736,-0.673,-0.532,-13.128000000000002,0.3722,0.04890766811043029,0.294,0.368,0.48,7.444,0.6636,0.04170179852236591,0.604,0.653,0.78,13.272,-88.2,2.993325909419153,-93.0,-89.0,-85.0,-1764.0,,,,,,0.0,-89.6,1.624807680927192,-92.0,-89.0,-88.0,-1792.0,-82.6,7.418894796396562,-97.0,-81.0,-77.0,-1652.0
-0.7076999999999999,0.011050339361304711,-0.728,-0.707,-0.69,-14.153999999999998,0.3843,0.027087081791880054,0.326,0.396,0.414,7.685999999999999,0.5921000000000001,0.022737414100992247,0.566,0.585,0.658,11.842,-91.6,2.4166091947189146,-94.0,-92.0,-87.0,-1832.0,,,,,,0.0,-83.5,4.924428900898052,-92.0,,-80.0,-1336.0,-83.0,0.6324555320336759,-84.0,-83.0,-82.0,-1660.0
-0.7125,0.005722761571129804,-0.722,-0.712,-0.706,-14.25,0.4024,0.00682934843158554,0.386,0.404,0.414,8.048,0.5735,0.006808083430746127,0.562,0.574,0.588,11.47,-91.8,0.9797958971132714,-93.0,-91.0,-91.0,-1836.0,,,,,,0.0,-80.0,0.6324555320336759,-81.0,-80.0,-79.0,-1600.0,-83.0,0.0,-83.0,-83.0,-83.0,-1660.0
-0.7109,0.00519519008314422,-0.72,-0.712,-0.704,-14.218,0.40680000000000005,0.005599999999999982,0.398,0.408,0.414,8.136000000000001,0.5736,0.007709734106958538,0.556,0.574,0.59,11.472,-91.2,0.4,-92.0,-91.0,-91.0,-1824.0,,,,,,0.0,-80.0,0.0,-80.0,-80.0,-80.0,-1600.0,-83.4,0.7999999999999999,-85.0,-83.0,-83.0,-1668.0
-0.7097,0.005109794516416492,-0.72,-0.709,-0.698,-14.194,0.40729999999999994,0.00693613725354392,0.396,0.408,0.422,8.145999999999999,0.5713999999999999,0.006755738301621789,0.556,0.574,0.582,11.427999999999999,-91.6,0.7999999999999999,-93.0,-91.0,-91.0,-1832.0,,,,,,0.0,-80.2,0.39999999999999997,-81.0,-80.0,-80.0,-1604.0,-83.4,0.7999999999999999,-85.0,-83.0,-83.0,-1668.0
-0.6865,0.020018741219167576,-0.714,-0.688,-0.642,-13.73,0.4489000000000001,0.03829608335065089,0.4,0.451,0.54,8.978000000000002,0.5605,0.017741194999210144,0.52,0.566,0.582,11.21,-89.0,3.847076812334269,-94.0,-91.0,-84.0,-1780.0,,,,,,0.0,-82.6,2.576819745345025,-87.0,-81.0,-80.0,-1652.0,-81.2,2.227105745132009,-83.0,-83.0,-78.0,-1624.0
-0.6293,0.015182555779578099,-0.66,-0.626,-0.608,-12.585999999999999,0.5633999999999999,0.016794046564184553,0.524,0.568,0.59,11.267999999999999,0.5310000000000001,0.008613942186943219,0.518,0.528,0.55,10.620000000000003,-86.6,3.720215047547655,-94.0,-85.0,-84.0,-1732.0,,,,,,0.0,-86.8,0.39999999999999997,-87.0,-87.0,-86.0,-1736.0,-82.6,1.4966629547095764,-84.0,-83.0,-80.0,-1652.0
-0.6184,0.006374950980203697,-0.632,-0.619,-0.606,-12.367999999999999,0.5734,0.006959885056522104,0.56,0.574,0.59,11.468,0.5307999999999999,0.0069397406291589955,0.52,0.528,0.546,10.616,-85.0,0.0,-85.0,,-85.0,-1360.0,,,,,,0.0,-86.6,0.4898979485566356,-87.0,-87.0,-86.0,-1732.0,-82.2,0.39999999999999997,-83.0,-82.0,-82.0,-1644.0
-0.6174999999999999,0.004189272013130686,-0.626,-0.616,-0.61,-12.35,0.5679,0.008636550237218531,0.546,0.568,0.582,11.357999999999999,0.5364000000000001,0.007499333303701076,0.516,0.536,0.552,10.728000000000002,-85.0,0.0,-85.0,,-85.0,-1020.0,,,,,,0.0,-86.75,0.82915619758885,-88.0,,-86.0,-1388.0,-82.0,0.0,-82.0,-82.0,-82.0,-1640.0
-0.6249,0.005233545643251815,-0.636,-0.624,-0.616,-12.498,0.5649000000000001,0.006244197306299624,0.556,0.566,0.576,11.298000000000002,0.5354,0.008345058418010034,0.518,0.536,0.55,10.708,,,,,,0.0,,,,,,0.0,-87.8,2.2271057451320093,-92.0,-87.0,-86.0,-1756.0,-83.2,2.4000000000000004,-88.0,-82.0,-82.0,-1664.0
-0.5599999999999998,0.08841719289821409,-0.648,-0.608,-0.352,-11.199999999999998,0.5869000000000001,0.03610249298871202,0.51,0.577,0.668,11.738000000000001,0.5865,0.0542581791069328,0.524,0.5609999999999999,0.71,11.73,-85.75,5.402545696243577,-95.0,,-82.0,-1372.0,,,,,,0.0,-87.2,1.16619037896906,-89.0,-87.0,-86.0,-1744.0,-79.8,1.3266499161421597,-82.0,-80.0,-78.0,-1596.0
-0.47700000000000004,0.08600348830134741,-0.61,-0.491,-0.338,-9.540000000000001,0.6343,0.0824918783881177,0.472,0.656,0.784,12.686,0.6411,0.09494308821604656,0.486,0.6910000000000001,0.766,12.822,-87.33333333333333,5.792715732327588,-95.0,,-81.0,-1048.0,,,,,,0.0,-84.5,4.330127018922194,-91.0,,-79.0,-1352.0,-79.2,2.1354156504062622,-83.0,-78.0,-77.0,-1584.0
-0.4149,0.13618145982475002,-0.656,-0.435,-0.186,-8.298,0.5755,0.16250276920717383,0.422,0.513,1.036,11.51,0.6851,0.1047004775538297,0.468,0.683,0.94,13.702,-83.2,2.7856776554368237,-88.0,-83.0,-80.0,-1664.0,,,,,,0.0,-79.8,2.4819347291981715,-84.0,-79.0,-77.0,-1596.0,-74.6,3.49857113690718,-78.0,-77.0,-69.0,-1492.0
-0.7442,0.18050473677995268,-1.008,-0.726,-0.304,-14.884,0.4944,0.12499855999170552,0.286,0.471,0.71,9.888,0.5013,0.0824166852039076,0.352,0.496,0.654,10.026,-82.2,2.1354156504062622,-86.0,-81.0,-80.0,-1644.0,,,,,,0.0,-81.6,5.4258639865002145,-90.0,-81.0,-75.0,-1632.0,-71.8,3.9191835884530852,-77.0,-70.0,-68.0,-1436.0
-0.7541,0.18091708045400245,-1.18,-0.704,-0.532,-15.082,0.43410000000000004,0.08983200988511836,0.268,0.43,0.672,8.682,0.3611,0.11843052815891687,0.12,0.347,0.64,7.2219999999999995,-86.8,4.707440918375928,-94.0,-87.0,-80.0,-1736.0,,,,,,0.0,-81.4,2.0591260281974,-85.0,-81.0,-79.0,-1628.0,-79.8,3.919183588453085,-86.0,-80.0,-74.0,-1596.0
-0.8089999999999999,0.14685979708551963,-1.056,-0.824,-0.538,-16.18,0.4625000000000001,0.12922519104261368,0.29,0.40700000000000003,0.728,9.250000000000002,0.3692,0.084098513661063,0.284,0.35,0.636,7.3839999999999995,-86.2,5.1146847410177685,-94.0,-85.0,-81.0,-1724.0,,,,,,0.0,-75.0,2.8284271247461903,-79.0,-75.0,-71.0,-1500.0,-84.6,5.351635264103861,-94.0,-84.0,-79.0,-1692.0
-0.8542,0.1864852809205059,-1.344,-0.85,-0.546,-17.084,0.42350000000000004,0.08032403127333688,0.23,0.424,0.556,8.47,0.2645,0.12328645505488428,0.07,0.28,0.446,5.29,-70.6,2.3323807579381204,-75.0,-69.0,-69.0,-1412.0,,,,,,0.0,-76.0,2.5298221281347035,-78.0,-77.0,-71.0,-1520.0,-83.6,3.136877428271624,-89.0,-84.0,-80.0,-1672.0
-0.8599,0.09976868246098071,-1.042,-0.866,-0.61,-17.198,0.38269999999999993,0.07544342250985171,0.246,0.378,0.604,7.653999999999999,0.20290000000000002,0.12335230034336613,-0.004,0.22999999999999998,0.396,4.058000000000001,-76.8,0.39999999999999997,-77.0,-77.0,-76.0,-1536.0,,,,,,0.0,-87.4,6.770524351924302,-99.0,-84.0,-81.0,-1748.0,-96.0,3.1622776601683795,-100.0,,-92.0,-1536.0
-0.7016,0.14641803167642978,-0.868,-0.738,-0.418,-14.032,0.49899999999999994,0.15219001281293068,0.28,0.485,0.782,9.979999999999999,0.4119,0.11204905175859367,0.216,0.439,0.574,8.238,-83.4,6.770524351924302,-95.0,-80.0,-77.0,-1668.0,,,,,,0.0,-83.75,11.008519428151999,-102.0,,-73.0,-1340.0,-94.25,2.384848003542364,-97.0,,-91.0,-1508.0
-0.6637,0.10630573832112736,-0.912,-0.636,-0.528,-13.274,0.6786999999999999,0.14062471333304116,0.448,0.692,1.08,13.573999999999998,0.30550000000000005,0.10102054246538177,0.152,0.336,0.448,6.110000000000001,-93.25,1.6393596310755,-96.0,,-92.0,-1492.0,,,,,,0.0,-87.2,5.635601121442149,-94.0,-87.0,-78.0,-1744.0,-93.6,5.2,-100.0,-93.0,-87.0,-1872.0
-0.6455,0.05024689045105179,-0.72,-0.644,-0.564,-12.91,0.6839999999999999,0.0699113724654294,0.44,0.709,0.744,13.68,0.015099999999999999,0.12136469832698468,-0.136,-0.025,0.296,0.302,,,,,,0.0,,,,,,0.0,-96.5,1.5,-98.0,,-95.0,-772.0,-91.2,4.166533331199931,-98.0,-89.0,-87.0,-1824.0
-0.784,0.0728319984622144,-0.906,-0.786,-0.586,-12.544,0.4453750000000001,0.15722391476807845,0.082,0.474,0.736,7.126000000000001,0.336875,0.17723849574796102,0.12,0.33399999999999996,0.608,5.39,-97.5,2.5,-100.0,,-95.0,-780.0,,,,,,0.0,-101.5,2.5,-104.0,,-99.0,-812.0,-94.5,5.024937810560445,-100.0,-95.5,-87.0,-1512.0
-0.6524,0.17909282509358102,-0.936,-0.632,-0.388,-13.048,0.5687,0.27842433442499237,-0.042,0.626,0.978,11.374,0.2643000000000001,0.34843264772406163,-0.334,0.371,0.894,5.286000000000001,-95.6,2.9393876913398134,-99.0,-95.0,-92.0,-1912.0,,,,,,0.0,-86.6,4.963869458396343,-95.0,-86.0,-80.0,-1732.0,-93.0,4.69041575982343,-99.0,-93.0,-86.0,-1860.0
-0.5936000000000001,0.0642358155548756,-0.748,-0.58,-0.474,-11.872000000000002,0.7151000000000002,0.09399675526314724,0.498,0.727,0.85,14.302000000000003,0.08499999999999999,0.2398178475426714,-0.352,0.185,0.412,1.6999999999999997,-98.0,3.286335345030997,-104.0,-97.0,-94.0,-1960.0,,,,,,0.0,-92.2,3.9698866482558413,-100.0,-91.0,-89.0,-1844.0,-89.6,2.576819745345025,-93.0,-89.0,-86.0,-1792.0
-0.29690000000000005,0.4775204602946349,-0.898,-0.488,0.428,-5.938000000000001,0.5473000000000001,0.5024122908528413,-0.338,0.679,1.318,10.946000000000002,0.4096,0.47821191955031817,-0.818,0.539,1.004,8.192,-96.0,4.47213595499958,-102.0,,-90.0,-1536.0,,,,,,0.0,-92.5,2.598076211353316,-96.0,,-90.0,-1480.0,-89.25,3.6996621467371855,-95.0,,-86.0,-1428.0
0.22062500000000002,0.032647501818669065,0.168,0.224,0.272,3.5300000000000002,-0.47275,0.06217666362872809,-0.6,-0.479,-0.366,-7.564,0.915125,0.06460251059362943,0.816,0.902,1.068,14.642,-100.5,0.5,-101.0,,-100.0,-804.0,,,,,,0.0,-97.5,4.5,-102.0,,-93.0,-780.0,-96.5,2.179449471770337,-100.0,-96.0,-94.0,-1544.0
-0.590125,0.5095461062308296,-1.144,-0.774,0.23,-9.442,0.2725,0.43520943234263665,-0.614,0.474,0.71,4.36,0.713125,0.1828865341543767,0.366,0.733,1.008,11.41,,,,,,0.0,,,,,,0.0,-92.66666666666667,1.699673171197595,-95.0,,-91.0,-1112.0,-94.66666666666667,2.494438257849294,-98.0,,-92.0,-1136.0
-0.8005,0.1129966813671977,-1.12,-0.757,-0.696,-12.808,0.36475,0.14450237887315212,0.16,0.323,0.598,5.836,0.44225000000000003,0.06624150888981924,0.312,0.471,0.524,7.0760000000000005,-95.0,0.0,-95.0,,-95.0,-380.0,,,,,,0.0,-96.0,2.9154759474226504,-100.0,-96.0,-92.0,-1536.0,-95.66666666666667,4.496912521077347,-102.0,,-92.0,-1148.0
-0.8377000000000001,0.15384703442055686,-1.124,-0.8240000000000001,-0.606,-16.754,0.35450000000000004,0.12309975629545333,0.126,0.329,0.624,7.090000000000001,0.28470000000000006,0.08432146820353639,0.192,0.27,0.476,5.694000000000001,,,,,,0.0,,,,,,0.0,-103.5,1.5,-105.0,,-102.0,-828.0,-90.2,3.8678159211627436,-97.0,-90.0,-86.0,-1804.0
-0.8992000000000001,0.1516145111788446,-1.328,-0.862,-0.674,-17.984,0.32860000000000006,0.08689556950731149,0.192,0.304,0.552,6.572000000000001,0.26070000000000004,0.14626178584989313,0.012,0.295,0.464,5.214,,,,,,0.0,,,,,,0.0,,,,,,0.0,-90.2,5.706137047074842,-98.0,-90.0,-83.0,-1804.0
-0.8820000000000002,0.09229301165310405,-1.172,-0.874,-0.718,-17.640000000000004,0.31840000000000007,0.05588416591486357,0.222,0.331,0.392,6.368000000000001,0.3023999999999999,0.04588507382580963,0.206,0.309,0.408,6.047999999999998,,,,,,0.0,,,,,,0.0,,,,,,0.0,-84.2,1.8330302779823358,-86.0,-85.0,-82.0,-1684.0
-0.8969000000000001,0.8508495695479901,-2.48,-0.698,0.158,-17.938000000000002,0.34609999999999996,0.3436623197267923,-0.042,0.241,1.426,6.922,0.28800000000000003,0.18974509216314397,-0.25,0.287,0.702,5.760000000000001,,,,,,0.0,,,,,,0.0,,,,,,0.0,-82.8,2.227105745132009,-86.0,-81.0,-81.0,-1656.0
-0.7766,0.7381875371475732,-2.384,-0.769,0.142,-15.532,0.3066000000000001,0.24332126910732652,-0.168,0.356,0.718,6.1320000000000014,0.32900000000000007,0.2460646256575699,-0.064,0.25,0.934,6.580000000000001,,,,,,0.0,,,,,,0.0,,,,,,0.0,-82.8,2.7856776554368237,-88.0,-82.0,-80.0,-1656.0
-0.8654999999999999,0.09336567891896892,-1.134,-0.861,-0.72,-17.31,0.28029999999999994,0.0568622018567695,0.2,0.269,0.384,5.605999999999999,0.3403,0.06856318253990257,0.248,0.327,0.454,6.806,,,,,,0.0,,,,,,0.0,,,,,,0.0,-90.8,6.04648658313239,-99.0,-89.0,-82.0,-1816.0
-0.8568999999999999,0.12772075007609374,-1.23,-0.859,-0.706,-17.137999999999998,0.38839999999999997,0.06732785456258056,0.236,0.393,0.476,7.767999999999999,0.3052,0.08811220119824495,0.166,0.324,0.416,6.104000000000001,,,,,,0.0,,,,,,0.0,,,,,,0.0,-89.4,2.3323807579381204,-93.0,-90.0,-86.0,-1788.0
-0.08949999999999998,0.4018844983325433,-0.696,-0.08399999999999999,0.408,-1.7899999999999996,0.4041,0.4739736174092393,-0.36,0.46299999999999997,1.124,8.082,0.8108000000000001,0.19256417112225216,0.432,0.8180000000000001,1.078,16.216,,,,,,0.0,,,,,,0.0,,,,,,0.0,-96.0,2.280350850198276,-99.0,-96.0,-93.0,-1920.0
0.503625,0.11753769342215287,0.198,0.525,0.646,8.058,-0.466375,0.14568153409063211,-0.68,-0.477,-0.144,-7.462,0.7182499999999999,0.1326647560582689,0.416,0.725,0.88,11.491999999999999,,,,,,0.0,,,,,,0.0,-98.0,4.0,-102.0,,-94.0,-784.0,-90.5,6.946221994724902,-102.0,-87.5,-85.0,-1448.0
0.4826999999999999,0.014075155416548689,0.448,0.487,0.5,9.653999999999998,-0.0038000000000000004,0.034933651398043115,-0.072,-0.006,0.06,-0.07600000000000001,0.9488,0.02816664694279387,0.914,0.942,1.022,18.976,,,,,,0.0,,,,,,0.0,,,,,,0.0,-81.0,0.0,-81.0,-81.0,-81.0,-1620.0
0.493,0.030288611721239395,0.454,0.482,0.572,9.86,0.004899999999999999,0.03845763903309718,-0.032,-0.008,0.126,0.09799999999999998,0.9501999999999999,0.027180139808323275,0.91,0.943,1.016,19.003999999999998,,,,,,0.0,,,,,,0.0,,,,,,0.0,-80.8,0.7483314773547882,-82.0,-81.0,-80.0,-1616.0
0.6468,0.1421258597159574,0.328,0.651,0.854,12.936,-0.11180000000000001,0.26737082862571226,-0.532,-0.08900000000000001,0.358,-2.236,0.7683000000000001,0.11553921412230567,0.582,0.785,1.022,15.366000000000001,,,,,,0.0,,,,,,0.0,-101.0,3.0,-104.0,,-98.0,-808.0,-85.4,1.9595917942265426,-88.0,-86.0,-82.0,-1708.0
0.5494736842105263,0.10075680382984337,0.332,0.572,0.752,10.440000000000001,0.166,0.18995068612114763,-0.212,0.194,0.44,3.154,0.7291578947368421,0.12954059032958082,0.422,0.7,0.948,13.854,,,,,,0.0,,,,,,0.0,,,,,,0.0,-92.94736842105263,6.419326774100768,-102.0,-92.0,-86.0,-1766.0
-0.6157000000000001,0.5543783094602457,-1.338,-0.897,0.278,-12.314000000000002,0.5919000000000001,0.29359528265965035,0.23,0.604,1.02,11.838000000000003,0.5142000000000001,0.17329500858362887,0.144,0.517,0.83,10.284000000000002,-100.5,3.5,-104.0,,-97.0,-804.0,,,,,,0.0,-95.0,0.0,-95.0,,-95.0,-380.0,-91.95,4.873140671066248,-102.0,-89.0,-87.0,-1839.0
-0.8039,0.16599575295771876,-1.232,-0.785,-0.52,-16.078,0.3686,0.10329782185506141,0.206,0.363,0.534,7.372,0.26410000000000006,0.10953077193190963,0.04,0.313,0.406,5.282000000000001,-98.66666666666667,2.6246692913372702,-101.0,,-95.0,-1184.0,,,,,,0.0,-98.0,2.1908902300206643,-101.0,,-95.0,-1470.0,-87.1,3.0967725134404045,-90.0,-89.0,-81.0,-1742.0
-0.8507,0.14562867162753357,-1.198,-0.823,-0.58,-17.014,0.3951,0.06366938039591716,0.248,0.41,0.476,7.902,0.1489,0.12765339791795594,-0.072,0.14300000000000002,0.366,2.978,,,,,,0.0,,,,,,0.0,-95.84615384615384,3.9970403251589475,-101.0,,-91.0,-1246.0,-83.8,4.237924020083418,-93.0,-83.0,-80.0,-1676.0
-0.8944000000000001,0.23796856935318164,-1.36,-0.9259999999999999,-0.498,-17.888,0.3397,0.13249343379956607,0.03,0.334,0.63,6.7940000000000005,0.2465,0.15550932447927357,0.114,0.181,0.704,4.93,,,,,,0.0,,,,,,0.0,,,,,,0.0,-92.3,5.187484939737175,-102.0,-91.0,-87.0,-1846.0
-0.907375,0.16138729620078526,-1.16,-0.948,-0.57,-14.518,0.32475,0.19019052946979248,0.024,0.326,0.668,5.196,0.20225,0.1471578659127673,-0.25,0.209,0.42,3.236,,,,,,0.0,,,,,,0.0,,,,,,0.0,-93.1875,2.983679565570003,-96.0,-94.0,-89.0,-1491.0
-0.27490000000000003,0.5022718287939311,-1.208,-0.027,0.44,-5.498000000000001,0.4929,0.4036773340181487,-0.296,0.483,1.934,9.858,0.5880999999999998,0.31317246047505515,0.112,0.514,1.112,11.761999999999997,,,,,,0.0,,,,,,0.0,,,,,,0.0,-92.6,2.154065922853802,-96.0,-92.0,-90.0,-1852.0
-0.0859,0.042766692647433,-0.196,-0.09,0.024,-1.7180000000000002,0.4981,0.058187541621897036,0.406,0.49,0.63,9.962,0.9446,0.050367052722985486,0.88,0.9359999999999999,1.048,18.892,,,,,,0.0,,,,,,0.0,,,,,,0.0,-90.5,3.3689761055846033,-95.0,-90.0,-86.0,-1810.0
-0.11510000000000002,0.04877079043854016,-0.264,-0.115,-0.036,-2.3020000000000005,0.3583,0.13958549351562288,0.06,0.355,0.542,7.166,0.9431,0.14708565531689352,0.492,0.948,1.208,18.862000000000002,,,,,,0.0,,,,,,0.0,-100.66666666666667,3.0912061651652345,-105.0,,-98.0,-1208.0,-92.25,2.2107690969434146,-95.0,-92.0,-89.0,-1845.0
-0.2859,0.14027469479560453,-0.52,-0.277,-0.008,-5.718,0.41080000000000005,0.1248573586137397,0.14,0.422,0.678,8.216000000000001,0.9142000000000001,0.1245935792888221,0.588,0.924,1.166,18.284000000000002,,,,,,0.0,,,,,,0.0,,,,,,0.0,-88.85,3.705064102009572,-96.0,-88.0,-86.0,-1777.0
-0.36415384615384616,0.0875775227167742,-0.488,-0.414,-0.222,-4.734,0.19384615384615383,0.19447675208258625,-0.088,0.262,0.556,2.52,0.9178461538461539,0.09847908497500772,0.772,0.916,1.08,11.932,,,,,,0.0,,,,,,0.0,,,,,,0.0,-92.61538461538461,3.1265232973694737,-97.0,-92.0,-88.0,-1204.0
0.021714285714285703,0.3947518983165119,-0.41,-0.19,0.496,0.1519999999999999,0.9651428571428572,0.2996089968949667,0.63,1.032,1.51,6.756,0.2534285714285714,0.14602432003202867,0.12,0.22,0.588,1.7739999999999998,,,,,,0.0,,,,,,0.0,-95.0,0.0,-95.0,,-95.0,-380.0,-98.0,0.0,-98.0,,-98.0,-294.0
-0.19299999999999998,0.22305492597116075,-0.378,-0.308,0.316,-3.0879999999999996,0.7737499999999999,0.09644396041225187,0.598,0.775,0.934,12.379999999999999,0.504375,0.24492878429249593,-0.016,0.582,0.806,8.07,,,,,,0.0,,,,,,0.0,,,,,,0.0,-90.3125,4.340488883754916,-98.0,-93.0,-85.0,-1445.0
-0.32530000000000003,0.1582798471063199,-0.602,-0.29000000000000004,-0.09,-6.506000000000001,0.5164,0.11315935666130308,0.286,0.481,0.748,10.328,0.8594000000000002,0.12818439842664162,0.642,0.823,1.12,17.188000000000002,,,,,,0.0,,,,,,0.0,-95.0,0.0,-95.0,,-95.0,-380.0,-88.75,4.548351349665063,-96.0,-88.0,-82.0,-1775.0
-0.8038000000000001,0.08197536215229548,-0.928,-0.824,-0.67,-16.076,0.45549999999999996,0.09937177667728397,0.296,0.451,0.638,9.11,0.2599,0.18754890029003102,0.03,0.21600000000000003,0.664,5.198,,,,,,0.0,,,,,,0.0,,,,,,0.0,-91.25,4.14578098794425,-96.0,-93.0,-82.0,-1825.0
-0.9319,0.09270269683240073,-1.16,-0.901,-0.814,-18.637999999999998,0.19429999999999997,0.09073758868297087,0.032,0.195,0.328,3.8859999999999997,0.19440000000000004,0.09551670011050423,0.008,0.228,0.304,3.888000000000001,,,,,,0.0,,,,,,0.0,,,,,,0.0,-88.75,3.6176649927819464,-94.0,-86.0,-85.0,-1775.0
-0.796,0.09452407100839445,-0.942,-0.796,-0.56,-15.920000000000002,0.29500000000000004,0.10002899579621902,0.13,0.28,0.472,5.9,0.3908,0.13574888581494876,0.128,0.385,0.668,7.816,,,,,,0.0,,,,,,0.0,,,,,,0.0,-84.85,2.612948526090784,-89.0,-86.0,-81.0,-1697.0
-0.9909000000000001,0.2682629120843953,-1.344,-1.06,-0.51,-19.818,0.21950000000000003,0.15074597838748469,-0.136,0.23,0.502,4.390000000000001,0.06549999999999999,0.16624785712904688,-0.24,0.086,0.418,1.3099999999999998,-102.0,0.0,-102.0,,-102.0,-408.0,,,,,,0.0,,,,,,0.0,-88.15,1.8513508581573617,-91.0,-88.0,-86.0,-1763.0
-0.9882999999999997,0.23065149034853427,-1.236,-1.105,-0.538,-19.765999999999995,0.3136,0.11687702939414571,0.15,0.319,0.496,6.272,0.3014,0.1816029735439373,0.076,0.245,0.782,6.028,,,,,,0.0,,,,,,0.0,,,,,,0.0,-86.3,3.083828789021855,-91.0,-86.0,-82.0,-1726.0
-0.7834000000000001,0.07940554136834532,-0.904,-0.7969999999999999,-0.648,-15.668000000000001,0.2594000000000001,0.08140294834955304,0.102,0.258,0.398,5.1880000000000015,0.1638,0.1449329500148258,-0.128,0.218,0.332,3.2760000000000002,,,,,,0.0,,,,,,0.0,,,,,,0.0,-87.3,7.036334272900912,-102.0,-88.0,-81.0,-1746.0
-0.8882000000000001,0.0664376399340013,-1.122,-0.864,-0.836,-17.764000000000003,0.34049999999999997,0.032807773469103324,0.262,0.346,0.402,6.81,0.2333,0.047435324390163076,0.15,0.225,0.352,4.666,,,,,,0.0,,,,,,0.0,,,,,,0.0,-88.25,6.155282284347323,-102.0,-85.0,-84.0,-1765.0
-0.8713000000000001,0.13749658177569363,-1.104,-0.836,-0.622,-17.426000000000002,0.21680000000000002,0.057129326969604675,0.114,0.205,0.326,4.336,0.019499999999999997,0.11261771619065981,-0.114,-0.02,0.248,0.38999999999999996,,,,,,0.0,,,,,,0.0,,,,,,0.0,-86.25,3.686122624113311,-90.0,-88.0,-80.0,-1725.0
-0.9376,0.0647845660632222,-1.08,-0.924,-0.85,-18.752,0.24609999999999999,0.022113118278524177,0.208,0.242,0.328,4.922,-0.06900000000000002,0.029206163733020468,-0.128,-0.063,-0.02,-1.3800000000000003,,,,,,0.0,,,,,,0.0,,,,,,0.0,-80.0,1.0,-84.0,-80.0,-79.0,-1600.0
-0.8961,0.01734906337529495,-0.928,-0.895,-0.852,-17.922,0.23809999999999998,0.010871522432483866,0.214,0.24,0.254,4.762,-0.060300000000000006,0.0223899531040152,-0.096,-0.064,-0.02,-1.2060000000000002,,,,,,0.0,,,,,,0.0,,,,,,0.0,-79.6,0.4898979485566356,-80.0,-80.0,-79.0,-1592.0
-0.9679,0.09012541262041468,-1.106,-0.976,-0.784,-19.358,0.23410000000000003,0.03292704055939434,0.176,0.231,0.304,4.682,-0.0975,0.039114575288503386,-0.148,-0.105,-0.016,-1.9500000000000002,,,,,,0.0,,,,,,0.0,,,,,,0.0,-86.75,6.479776230704267,-98.0,-87.0,-80.0,-1735.0
-0.8115,0.06517936790120016,-0.928,-0.8160000000000001,-0.688,-16.23,0.30670000000000003,0.04797197098306467,0.23,0.305,0.37,6.134,0.17919999999999997,0.1060064149002314,-0.032,0.196,0.312,3.5839999999999996,,,,,,0.0,,,,,,0.0,,,,,,0.0,-92.95,5.113462623311135,-102.0,-90.0,-89.0,-1859.0
-0.8474999999999999,0.009205976319760993,-0.862,-0.848,-0.832,-16.95,0.34989999999999993,0.021739135217390775,0.302,0.346,0.384,6.997999999999998,0.3031,0.01499966666296289,0.28,0.302,0.332,6.061999999999999,,,,,,0.0,,,,,,0.0,,,,,,0.0,-86.85,3.5815499438092444,-102.0,-86.0,-85.0,-1737.0
-0.8598999999999999,0.009475758544834295,-0.878,-0.86,-0.83,-17.197999999999997,0.34619999999999995,0.015308820986607682,0.332,0.34,0.39,6.9239999999999995,0.28959999999999997,0.012370933675353685,0.254,0.292,0.304,5.792,,,,,,0.0,,,,,,0.0,,,,,,0.0,-87.4,2.690724809414742,-92.0,-87.0,-85.0,-1748.0
-0.8213000000000001,0.11302437790140672,-1.136,-0.809,-0.58,-16.426000000000002,0.2864,0.10518098687500511,0.054,0.276,0.428,5.728,0.088,0.1297351147530999,-0.154,0.123,0.284,1.76,,,,,,0.0,,,,,,0.0,,,,,,0.0,-90.75,5.4117926789558375,-102.0,-90.0,-86.0,-1815.0
-0.9430999999999999,0.10984985207090633,-1.2,-0.902,-0.782,-18.862,0.3713000000000001,0.11136476103328198,0.164,0.368,0.62,7.426000000000001,0.24380000000000002,0.09653786821760672,0.126,0.238,0.604,4.876,,,,,,0.0,,,,,,0.0,,,,,,0.0,-94.1,5.6204981985585585,-102.0,-95.0,-87.0,-1882.0
-0.8583000000000001,0.008746999485537891,-0.878,-0.858,-0.846,-17.166,0.3861,0.01760085225209279,0.348,0.384,0.414,7.722,0.1802,0.010017983829094555,0.156,0.184,0.194,3.604,,,,,,0.0,,,,,,0.0,,,,,,0.0,-93.1,1.4798648586948742,-96.0,-93.0,-90.0,-1862.0
-0.8785999999999999,0.062116342455105986,-1.04,-0.87,-0.75,-17.572,0.4021,0.07035474397650808,0.27,0.385,0.582,8.042,0.2385,0.07236539228111737,0.142,0.216,0.47,4.77,,,,,,0.0,,,,,,0.0,,,,,,0.0,-89.15,2.725344014982329,-95.0,-88.0,-87.0,-1783.0
-0.8763,0.11508479482538081,-1.076,-0.879,-0.686,-17.526,0.2484,0.11527809852699687,0.08,0.236,0.454,4.968,0.08360000000000001,0.0923224783029572,-0.088,0.091,0.278,1.6720000000000002,,,,,,0.0,,,,,,0.0,,,,,,0.0,-90.45,2.1558061137310096,-95.0,-90.0,-88.0,-1809.0
-0.866,0.06049462786066214,-1.0,-0.84,-0.788,-17.32,0.32320000000000004,0.061473246213291845,0.224,0.33499999999999996,0.44,6.464,0.23389999999999994,0.0673007429379498,0.102,0.251,0.344,4.677999999999999,,,,,,0.0,,,,,,0.0,,,,,,0.0,-90.0,2.4083189157584592,-94.0,-90.0,-86.0,-1800.0
-0.8513999999999999,0.01293213052826178,-0.878,-0.848,-0.832,-17.028,0.349,0.026724520575681057,0.286,0.35,0.398,6.9799999999999995,0.29240000000000005,0.019571407716360102,0.246,0.293,0.324,5.848000000000001,,,,,,0.0,,,,,,0.0,,,,,,0.0,-88.95,1.1169153951844337,-90.0,-89.0,-87.0,-1779.0
-0.8622,0.08635716530780756,-1.044,-0.851,-0.656,-17.244,0.3327,0.10029810566506228,0.076,0.356,0.466,6.654,0.13579999999999998,0.0990916747259829,-0.008,0.11499999999999999,0.294,2.7159999999999997,,,,,,0.0,,,,,,0.0,,,,,,0.0,-89.05,2.6734808770589704,-93.0,-90.0,-85.0,-1781.0
-0.9307058823529412,0.2021088130644953,-1.37,-0.962,-0.596,-15.822,0.04682352941176471,0.14864099477842485,-0.148,0.01,0.35,0.796,0.04917647058823529,0.25145698621624135,-0.442,0.142,0.47,0.8359999999999999,,,,,,0.0,,,,,,0.0,,,,,,0.0,-92.58823529411765,1.717002296391344,-94.0,-93.0,-90.0,-1574.0
-0.6862105263157895,0.046804834373979164,-0.834,-0.672,-0.634,-13.038,0.1896842105263158,0.024813096354395613,0.156,0.182,0.236,3.604,0.7165263157894737,0.06269673744643013,0.568,0.738,0.812,13.614,,,,,,0.0,,,,,,0.0,,,,,,0.0,-85.57894736842105,0.8153649149910351,-86.0,-86.0,-84.0,-1626.0
-0.6723000000000001,0.004484417464955736,-0.682,-0.672,-0.666,-13.446000000000002,0.17270000000000002,0.007301369734508721,0.156,0.173,0.19,3.454,0.7428000000000001,0.012253978945632323,0.704,0.744,0.76,14.856000000000002,,,,,,0.0,,,,,,0.0,,,,,,0.0,-87.2,2.4000000000000004,-92.0,-86.0,-86.0,-1744.0
-0.665375,0.2861815147332196,-1.056,-0.7150000000000001,0.24,-10.646,0.11112499999999999,0.16159357776533076,-0.336,0.127,0.354,1.7779999999999998,0.704375,0.20875849533611798,0.168,0.702,1.136,11.27,,,,,,0.0,,,,,,0.0,,,,,,0.0,-93.3125,7.329041120774258,-102.0,-88.0,-86.0,-1493.0
0.2697,0.8013369516002615,-1.218,0.562,1.36,5.394,0.38380000000000003,0.40573533245208016,-0.572,0.471,1.15,7.676000000000001,0.5126,0.20106924180490662,0.24,0.489,1.048,10.251999999999999,-91.0,0.0,-91.0,,-91.0,-273.0,,,,,,0.0,-96.72727272727273,0.9620913858416692,-98.0,,-96.0,-1064.0,-95.9,7.1965269401288285,-105.0,-94.0,-83.0,-1918.0
0.7059,0.04825132122543382,0.636,0.713,0.806,14.117999999999999,0.08769999999999999,0.1477217316443319,-0.174,0.075,0.416,1.7539999999999998,0.7534,0.054699542959699386,0.654,0.759,0.838,15.068,-91.94117647058823,1.2112506048220002,-94.0,,-91.0,-1563.0,,,,,,0.0,-93.75,2.165063509461097,-97.0,-92.0,-92.0,-1875.0,-87.75,4.02336923485777,-95.0,-86.0,-83.0,-1755.0
0.6215999999999999,0.04172577141288104,0.53,0.622,0.718,12.431999999999999,0.1961,0.05279573846438745,0.088,0.191,0.272,3.922,0.8109000000000002,0.04181614520732392,0.724,0.8109999999999999,0.892,16.218000000000004,-95.0,0.6488856845230502,-96.0,,-94.0,-1805.0,,,,,,0.0,-95.22222222222223,0.628539361054709,-97.0,,-95.0,-857.0,-84.75,0.4330127018922193,-85.0,-85.0,-84.0,-1695.0
0.6020999999999999,0.00893252483903628,0.582,0.603,0.624,12.041999999999998,0.16499999999999998,0.01197497390393816,0.144,0.161,0.188,3.3,0.8371999999999999,0.012335315156087406,0.808,0.84,0.852,16.744,-94.0625,0.24206145913796356,-95.0,,-94.0,-1505.0,,,,,,0.0,-99.0,0.0,-99.0,,-99.0,-396.0,-84.45,0.4974937185533099,-85.0,-84.0,-84.0,-1689.0
0.595,0.009262828941527537,0.578,0.598,0.608,11.9,0.16490000000000002,0.008472897969408104,0.142,0.166,0.182,3.2980000000000005,0.8432999999999999,0.008468175718535849,0.816,0.846,0.856,16.866,-94.55,0.804673846971554,-95.0,-95.0,-93.0,-1891.0,,,,,,0.0,,,,,,0.0,-84.6,0.4898979485566356,-85.0,-85.0,-84.0,-1692.0
0.5996999999999999,0.005595533933415117,0.59,0.6,0.614,11.993999999999998,0.1659,0.005384236250388717,0.158,0.166,0.176,3.318,0.8478,0.007180529228406503,0.834,0.847,0.864,16.956,-94.08333333333333,0.8620067027323832,-95.0,,-93.0,-1129.0,,,,,,0.0,,,,,,0.0,-84.95,0.21794494717703367,-85.0,-85.0,-84.0,-1699.0
0.6207999999999998,0.18657481073285323,0.29,0.606,1.218,12.415999999999997,0.20010000000000003,0.26502941346197784,-0.516,0.138,0.78,4.002000000000001,0.4365000000000001,0.688771043235704,-0.994,0.808,1.204,8.730000000000002,-94.0,3.7712361663282534,-98.0,,-90.0,-846.0,,,,,,0.0,-96.18181818181819,2.405228464604173,-98.0,,-93.0,-1058.0,-87.95,4.08013480169467,-94.0,-86.0,-84.0,-1759.0
0.6200000000000001,0.10361274052933839,0.524,0.599,1.036,12.400000000000002,-0.016399999999999994,0.12936862061566554,-0.258,-0.031,0.178,-0.3279999999999999,-0.7034,0.08526218388007666,-0.866,-0.7,-0.584,-14.068000000000001,,,,,,0.0,,,,,,0.0,-98.0,0.0,-98.0,,-98.0,-98.0,-91.0,3.4351128074635335,-97.0,-90.0,-87.0,-1820.0
0.5427500000000001,0.014506464076404007,0.5,0.542,0.574,8.684000000000001,0.12737500000000002,0.012343393982207648,0.098,0.126,0.152,2.0380000000000003,-0.716625,0.020539215540034628,-0.756,-0.72,-0.66,-11.466,,,,,,0.0,,,,,,0.0,,,,,,0.0,-94.4375,1.4128318194321643,-96.0,-94.0,-90.0,-1511.0
0.5408000000000001,0.007520638270785272,0.516,0.542,0.556,10.816,0.1319,0.007361385739111895,0.12,0.13,0.144,2.638,-0.7221,0.005156549233741499,-0.732,-0.72,-0.714,-14.442,,,,,,0.0,,,,,,0.0,,,,,,0.0,-95.0,0.0,-95.0,-95.0,-95.0,-1900.0
0.5423000000000001,0.0070505318948289345,0.518,0.544,0.55,10.846000000000002,0.13620000000000002,0.006599999999999996,0.12,0.138,0.144,2.724,-0.7173,0.007830070242341386,-0.73,-0.72,-0.696,-14.346,,,,,,0.0,,,,,,0.0,,,,,,0.0,-96.55,3.1539657575820317,-104.0,-95.0,-95.0,-1931.0
0.5434000000000001,0.008296987405076622,0.524,0.544,0.56,10.868000000000002,0.14270000000000002,0.0124623432788541,0.124,0.142,0.19,2.8540000000000005,-0.7157,0.0061408468471376215,-0.728,-0.715,-0.704,-14.314,,,,,,0.0,,,,,,0.0,,,,,,0.0,-95.85,1.9306734576307827,-104.0,-95.0,-95.0,-1917.0
0.6827368421052631,0.1257536614954069,0.488,0.686,0.88,12.972,0.2265263157894737,0.11250420736977029,-0.02,0.222,0.52,4.304,-0.24,0.5100509778443719,-0.884,-0.408,0.616,-4.56,-95.6,4.409081537009721,-104.0,,-92.0,-956.0,,,,,,0.0,-99.0,2.0,-101.0,,-97.0,-792.0,-96.17647058823529,1.4646940703516156,-98.0,,-94.0,-1635.0
0.8654,0.21972719449353556,0.53,0.834,1.334,17.308,0.24499999999999994,0.26414200726124576,-0.138,0.164,0.822,4.899999999999999,0.3802,0.31217937151580016,-0.09,0.406,0.982,7.604,-97.83333333333333,2.852873794770615,-104.0,,-95.0,-1174.0,,,,,,0.0,-95.0,2.449489742783178,-99.0,,-93.0,-1520.0,-93.33333333333333,5.291502622129181,-102.0,,-84.0,-1680.0
0.5654,0.085285637712337,0.406,0.563,0.688,11.308,0.16440000000000005,0.10059343914987696,-0.052,0.161,0.316,3.2880000000000007,0.8568000000000001,0.08142088184243647,0.702,0.853,1.014,17.136000000000003,-98.7,2.4103941586387903,-102.0,-98.0,-95.0,-1974.0,,,,,,0.0,-93.66666666666667,0.4714045207910317,-94.0,,-93.0,-562.0,-84.8,1.7776388834631176,-87.0,-85.0,-82.0,-1696.0
0.55,0.013652838532700808,0.518,0.554,0.572,11.000000000000002,0.19290000000000002,0.011374972527439351,0.156,0.194,0.212,3.8580000000000005,0.8754,0.014739063742314177,0.83,0.874,0.908,17.508,-100.875,0.5994789404140899,-102.0,,-100.0,-1614.0,,,,,,0.0,-95.8,3.4292856398964497,-100.0,,-93.0,-958.0,-87.3,0.6403124237432849,-88.0,-87.0,-86.0,-1746.0
0.5576000000000001,0.008935323161475443,0.536,0.557,0.572,11.152000000000001,0.1866,0.009759098319004685,0.158,0.19,0.204,3.7319999999999998,0.8744,0.018488915598271302,0.838,0.872,0.942,17.488,-101.5,0.7071067811865476,-103.0,,-101.0,-1624.0,,,,,,0.0,-93.0,0.0,-93.0,,-93.0,-372.0,-86.7,0.7810249675906654,-88.0,-86.5,-86.0,-1734.0
0.5506,0.0320006249938966,0.432,0.552,0.616,11.011999999999999,0.1764,0.05946965612814656,0.012,0.191,0.326,3.528,0.8834,0.03346699867033194,0.798,0.878,0.984,17.668,-101.8,0.7483314773547883,-103.0,,-101.0,-1018.0,,,,,,0.0,-93.33333333333333,0.4714045207910317,-94.0,,-93.0,-560.0,-85.5,1.8027756377319946,-88.0,-86.0,-83.0,-1710.0
0.6211249999999999,0.3666980834078629,-0.032,0.75,1.214,9.937999999999999,0.3105,0.23463002791629206,0.056,0.258,0.83,4.968,0.7045,0.2838357799855402,0.334,0.653,1.372,11.272,-97.0,0.0,-97.0,,-97.0,-388.0,,,,,,0.0,-100.0,3.286335345030997,-103.0,,-94.0,-1000.0,-91.375,5.194648688795037,-99.0,-89.0,-83.0,-1462.0
-0.4675,0.38201668811715545,-0.896,-0.445,-0.084,-1.87,-0.1105,0.0736529021831455,-0.19,-0.109,-0.034,-0.442,0.7745000000000001,0.15128367393740808,0.576,0.78,0.962,3.0980000000000003,,,,,,0.0,,,,,,0.0,,,,,,0.0,-92.5,1.5,-94.0,-92.5,-91.0,-370.0
-0.3859,0.2227244710398927,-0.784,-0.313,-0.082,-7.718,0.2501,0.25183286123935456,-0.146,0.186,0.642,5.002,0.8877,0.18429679866997148,0.598,0.871,1.262,17.754,,,,,,0.0,,,,,,0.0,,,,,,0.0,-96.0,5.0990195135927845,-103.0,-96.0,-89.0,-1920.0
-0.21633333333333335,0.01698692307498788,-0.232,-0.225,-0.184,-1.298,0.516,0.013613718571108104,0.504,0.511,0.54,3.096,0.866,0.009092121131323912,0.854,0.867,0.88,5.196,,,,,,0.0,,,,,,0.0,,,,,,0.0,-103.66666666666667,0.47140452079103173,-104.0,-104.0,-103.0,-622.0
-0.23450000000000001,0.007621242243449114,-0.248,-0.234,-0.216,-2.814,0.5106666666666667,0.008881941729649494,0.496,0.51,0.526,6.128,0.8751666666666665,0.007459148000200089,0.864,0.877,0.888,10.501999999999999,,,,,,0.0,,,,,,0.0,,,,,,0.0,-102.66666666666667,0.4714045207910317,-103.0,-103.0,-102.0,-1232.0
-0.2223333333333333,0.030992830712207545,-0.264,-0.229,-0.168,-1.3339999999999999,0.539,0.025787593916455236,0.496,0.541,0.566,3.234,0.8543333333333333,0.02381642757052836,0.828,0.846,0.902,5.1259999999999994,,,,,,0.0,,,,,,0.0,,,,,,0.0,-93.0,8.48528137423857,-99.0,-99.0,-81.0,-558.0
-0.6836,0.30838067384322254,-1.264,-0.733,-0.18,-13.672,0.4952000000000001,0.15628614781867264,0.178,0.518,0.712,9.904000000000002,0.44709999999999994,0.46286346799029193,0.016,0.309,2.022,8.941999999999998,,,,,,0.0,,,,,,0.0,,,,,,0.0,-90.6,5.388877434122992,-99.0,-90.0,-81.0,-1812.0
-0.812,0.12517827287512798,-0.986,-0.864,-0.576,-16.240000000000002,0.3248,0.06577051010901466,0.148,0.328,0.454,6.4959999999999996,0.2459,0.10034834328477975,0.016,0.293,0.35,4.918,,,,,,0.0,,,,,,0.0,,,,,,0.0,-89.3,2.0518284528683193,-92.0,-89.0,-86.0,-1786.0
-0.8454999999999998,0.12058834935432196,-1.134,-0.8140000000000001,-0.708,-16.909999999999997,0.31820000000000004,0.04169364459962693,0.222,0.324,0.392,6.364000000000001,0.3339000000000001,0.03248060960019069,0.262,0.334,0.412,6.678000000000002,-100.0,0.0,-100.0,,-100.0,-400.0,,,,,,0.0,,,,,,0.0,-90.6,1.9595917942265426,-93.0,-90.0,-86.0,-1812.0
-0.8617000000000001,0.015636815532582088,-0.904,-0.862,-0.832,-17.234,0.3212,0.012623787070447605,0.3,0.324,0.352,6.4239999999999995,0.32439999999999997,0.023482759633399127,0.28,0.325,0.368,6.4879999999999995,,,,,,0.0,,,,,,0.0,,,,,,0.0,-89.5,0.5,-90.0,-89.5,-89.0,-1790.0
-0.8689,0.038809663745000424,-0.962,-0.869,-0.8,-17.378,0.2972,0.026887915501206117,0.246,0.302,0.342,5.944,0.31229999999999997,0.04042412645933119,0.204,0.317,0.364,6.2459999999999996,,,,,,0.0,,,,,,0.0,-101.0,0.0,-101.0,,-101.0,-404.0,-87.8,2.3151673805580453,-90.0,-89.0,-84.0,-1756.0
-0.8752000000000001,0.04404724736007916,-0.958,-0.882,-0.736,-17.504,0.3327,0.023809871902217367,0.294,0.326,0.384,6.654,0.1744,0.09092326434967016,0.038,0.175,0.296,3.488,-102.0,0.0,-102.0,,-102.0,-408.0,,,,,,0.0,,,,,,0.0,-85.7,2.282542442102666,-88.0,-86.0,-82.0,-1714.0
-0.8554999999999999,0.040303225677357384,-0.954,-0.857,-0.766,-17.11,0.30289999999999995,0.01407799701662136,0.28,0.303,0.334,6.057999999999999,0.2802000000000001,0.03172948155895396,0.206,0.289,0.316,5.604000000000002,,,,,,0.0,,,,,,0.0,-103.0,0.0,-103.0,,-103.0,-412.0,-85.6,3.8000000000000003,-93.0,-84.0,-83.0,-1712.0
-0.9085000000000001,0.14296695422369465,-1.108,-0.946,-0.644,-18.17,0.2244,0.06592601914267233,0.076,0.226,0.344,4.4879999999999995,-0.023399999999999997,0.07392455613664516,-0.12,-0.055,0.132,-0.46799999999999997,-102.0,0.0,-102.0,,-102.0,-408.0,,,,,,0.0,,,,,,0.0,-84.2,4.48998886412873,-92.0,-83.5,-78.0,-1684.0
-0.9053000000000001,0.06150211378481233,-1.042,-0.902,-0.83,-18.106,0.2632,0.012607934009979596,0.23,0.266,0.28,5.263999999999999,-0.06410000000000002,0.02208596839624652,-0.104,-0.065,-0.028,-1.2820000000000003,,,,,,0.0,,,,,,0.0,,,,,,0.0,-78.6,0.7999999999999999,-80.0,-78.0,-78.0,-1572.0
-0.8958,0.012163880959627985,-0.912,-0.899,-0.868,-17.916,0.2487,0.013088544609695923,0.214,0.25,0.28,4.974,-0.0743,0.02258561489089903,-0.11,-0.08,-0.002,-1.4860000000000002,,,,,,0.0,,,,,,0.0,,,,,,0.0,-78.0,0.0,-78.0,-78.0,-78.0,-1560.0
-0.9654,0.06600333324916251,-1.08,-0.951,-0.856,-19.308,0.2579,0.033926243529161904,0.198,0.256,0.344,5.158,-0.09460000000000002,0.0222,-0.142,-0.09,-0.058,-1.8920000000000003,-98.0,0.0,-98.0,,-98.0,-392.0,,,,,,0.0,,,,,,0.0,-83.2,3.655133376499413,-87.0,-84.5,-78.0,-1664.0
-0.8066000000000001,0.09682788854457171,-0.994,-0.783,-0.68,-16.132,0.2986999999999999,0.07284305045781649,0.168,0.284,0.476,5.973999999999998,0.20339999999999997,0.13509715022901114,-0.026,0.257,0.408,4.068,,,,,,0.0,,,,,,0.0,,,,,,0.0,-86.5,3.170173496829472,-91.0,-87.0,-81.0,-1730.0
-0.8460000000000001,0.023065125189341586,-0.89,-0.848,-0.782,-16.92,0.3227,0.06025703278456383,0.232,0.323,0.428,6.454,0.3487999999999999,0.026633813095386843,0.31,0.345,0.412,6.975999999999998,,,,,,0.0,,,,,,0.0,,,,,,0.0,-90.0,3.22490309931942,-93.0,-91.0,-81.0,-1800.0
-0.8544,0.011959933110180853,-0.88,-0.857,-0.834,-17.088,0.313,0.02010472581260436,0.28,0.308,0.35,6.26,0.3282,0.020414700585607425,0.286,0.334,0.36,6.564,,,,,,0.0,,,,,,0.0,,,,,,0.0,-88.3,2.0518284528683193,-90.0,-89.0,-84.0,-1766.0
-0.8351,0.0918117094928528,-0.964,-0.839,-0.664,-16.701999999999998,0.2751,0.09893123874691959,0.034,0.306,0.396,5.502000000000001,0.1568,0.0878598884588411,-0.036,0.178,0.286,3.1359999999999997,,,,,,0.0,,,,,,0.0,,,,,,0.0,-88.2,2.8213471959331766,-94.0,-87.5,-84.0,-1764.0
-0.9166000000000001,0.09363567696129504,-1.096,-0.94,-0.756,-18.332,0.38380000000000003,0.15120304229743525,-0.006,0.43,0.6,7.676,0.19869999999999996,0.13524536960650446,-0.066,0.248,0.454,3.9739999999999993,,,,,,0.0,,,,,,0.0,,,,,,0.0,-92.9,1.8681541692269403,-95.0,-93.5,-89.0,-1858.0
-0.8273999999999999,0.013268006632497576,-0.852,-0.827,-0.804,-16.548,0.4394,0.021864125868646115,0.402,0.435,0.504,8.788,0.24489999999999998,0.02467772274744977,0.2,0.243,0.286,4.898,,,,,,0.0,,,,,,0.0,,,,,,0.0,-87.3,1.0049875621120892,-89.0,-87.5,-86.0,-1746.0
-0.8224,0.012611106216347536,-0.858,-0.823,-0.802,-16.448,0.4359,0.012481586437628842,0.414,0.434,0.462,8.718,0.24139999999999998,0.011490865937778583,0.216,0.24,0.262,4.827999999999999,,,,,,0.0,,,,,,0.0,,,,,,0.0,-89.5,4.318564576337836,-98.0,-87.5,-86.0,-1790.0
-0.9006000000000001,0.11044835897377564,-1.224,-0.839,-0.818,-18.012,0.4633,0.06600083332807247,0.334,0.442,0.632,9.266,0.2323000000000001,0.06686187254332622,0.134,0.236,0.45,4.646000000000002,,,,,,0.0,,,,,,0.0,,,,,,0.0,-94.4,4.24735211631906,-99.0,-94.5,-89.0,-1888.0
-0.8371999999999999,0.13682309746530372,-1.252,-0.831,-0.654,-16.744,0.22969999999999996,0.12406010640008334,-0.008,0.26,0.414,4.593999999999999,0.06189999999999999,0.07459349837619898,-0.08,0.07100000000000001,0.206,1.2379999999999998,,,,,,0.0,,,,,,0.0,,,,,,0.0,-89.9,4.346262762420146,-99.0,-89.0,-84.0,-1798.0
-0.8554999999999999,0.053668892293394686,-0.98,-0.857,-0.776,-17.11,0.3333,0.0633191124385047,0.224,0.345,0.45,6.6659999999999995,0.3347,0.04400579507292193,0.236,0.346,0.384,6.694,,,,,,0.0,,,,,,0.0,,,,,,0.0,-86.6,1.1135528725660042,-88.0,-87.0,-84.0,-1732.0
-0.8539,0.008011866199581726,-0.872,-0.854,-0.84,-17.078,0.3125,0.008828929719960407,0.294,0.312,0.328,6.25,0.3401,0.013732807433296357,0.312,0.344,0.358,6.8020000000000005,,,,,,0.0,,,,,,0.0,,,,,,0.0,-85.9,0.3,-86.0,-86.0,-85.0,-1718.0
-0.8760999999999999,0.039917289487138276,-0.976,-0.865,-0.826,-17.522,0.30720000000000003,0.014496896219536096,0.28,0.304,0.344,6.144,0.2263,0.10097182775408198,0.05,0.278,0.35,4.526,,,,,,0.0,,,,,,0.0,,,,,,0.0,-85.6,0.9165151389911679,-87.0,-86.0,-84.0,-1712.0
-0.8942222222222223,0.16882323285204937,-1.4,-0.873,-0.658,-16.096,0.12244444444444445,0.12441070971326393,-0.08,0.14,0.352,2.204,0.03466666666666666,0.16299011558305546,-0.306,0.072,0.358,0.6239999999999999,,,,,,0.0,,,,,,0.0,,,,,,0.0,-93.66666666666667,5.617433182117573,-102.0,-91.0,-87.0,-1686.0
-0.6892222222222224,0.11574327700924797,-1.102,-0.648,-0.608,-12.406000000000002,0.21688888888888888,0.08132027824793142,0.112,0.194,0.386,3.904,0.7071111111111111,0.09930474358642406,0.434,0.747,0.814,12.728,,,,,,0.0,,,,,,0.0,,,,,,0.0,-89.77777777777777,0.9162456945817024,-92.0,-90.0,-89.0,-1616.0
-0.6255999999999999,0.008731551981177237,-0.64,-0.626,-0.61,-12.511999999999999,0.1844,0.01576832267554162,0.172,0.178,0.246,3.688,0.7882,0.01476346842716845,0.764,0.788,0.82,15.764,,,,,,0.0,,,,,,0.0,,,,,,0.0,-90.6,0.6633249580710799,-92.0,-90.5,-90.0,-1812.0
-0.6367,0.005874521257089812,-0.654,-0.635,-0.628,-12.734,0.17639999999999997,0.006437390775772432,0.158,0.177,0.192,3.5279999999999996,0.783,0.0073075303625780505,0.77,0.782,0.796,15.66,,,,,,0.0,,,,,,0.0,,,,,,0.0,-90.1,0.3,-91.0,-90.0,-90.0,-1802.0
-0.627,0.011120551545074861,-0.644,-0.625,-0.612,-3.762,0.17799999999999996,0.010708252269472673,0.166,0.176,0.192,1.0679999999999998,0.7593333333333333,0.02054804667656327,0.732,0.762,0.784,4.556,,,,,,0.0,,,,,,0.0,,,,,,0.0,-91.66666666666667,0.47140452079103173,-92.0,-92.0,-91.0,-550.0
0.3795555555555555,0.4198473561535619,-0.832,0.46399999999999997,0.838,6.831999999999999,0.6124444444444446,0.27719993230362777,-0.008,0.625,1.254,11.024000000000003,0.637,0.279370920303297,0.14,0.579,1.134,11.466000000000001,-103.33333333333333,0.4714045207910317,-104.0,,-103.0,-620.0,,,,,,0.0,-90.0,0.0,-90.0,,-90.0,-180.0,-95.88888888888889,4.228066131208989,-102.0,-95.0,-90.0,-1726.0
0.6510999999999999,0.10633809289243437,0.486,0.646,0.91,13.021999999999998,0.037899999999999996,0.21670853697997225,-0.432,0.147,0.28,0.7579999999999999,0.7681,0.1131591357337091,0.518,0.794,0.968,15.362,-100.0,2.8284271247461903,-104.0,,-98.0,-600.0,,,,,,0.0,-93.4,4.127953488110059,-101.0,-92.5,-89.0,-1868.0,-83.8,3.815756805667783,-95.0,-82.0,-82.0,-1676.0
0.5474999999999999,0.027319407021383163,0.496,0.545,0.614,10.949999999999998,0.25270000000000004,0.09256408590808857,0.04,0.23,0.524,5.054,0.8624,0.028931643575849597,0.802,0.86,0.952,17.248,,,,,,0.0,,,,,,0.0,-93.375,0.8569568250501305,-94.0,,-92.0,-1494.0,-82.8,0.39999999999999997,-83.0,-83.0,-82.0,-1656.0
0.5563,0.007301369734508714,0.542,0.558,0.572,11.126000000000001,0.2257,0.008228608630868283,0.208,0.225,0.238,4.514,0.8636000000000001,0.008187795796183495,0.852,0.861,0.88,17.272000000000002,,,,,,0.0,,,,,,0.0,-92.8,0.7483314773547882,-94.0,-93.0,-92.0,-1856.0,-82.6,0.4898979485566356,-83.0,-83.0,-82.0,-1652.0
0.5587000000000001,0.00600915967502942,0.544,0.559,0.572,11.174000000000001,0.22280000000000003,0.00844748483277715,0.206,0.222,0.24,4.456,0.8615999999999999,0.007391887445030538,0.846,0.864,0.872,17.232,,,,,,0.0,,,,,,0.0,-92.55555555555556,1.0657403385139377,-94.0,,-91.0,-1666.0,-84.1,2.981610303175114,-90.0,-83.0,-82.0,-1682.0
0.5516,0.09320643754591203,0.392,0.537,0.702,11.032,0.23770000000000002,0.24157257708605917,-0.434,0.219,0.782,4.7540000000000004,0.5252,0.6555218989477011,-0.776,0.861,1.12,10.504,-91.0,2.0,-93.0,,-89.0,-728.0,,,,,,0.0,-95.0,3.286335345030997,-101.0,,-92.0,-950.0,-86.0,3.7682887362833544,-92.0,-85.5,-82.0,-1720.0
0.5819000000000001,0.20363838046890867,0.418,0.535,1.282,11.638000000000002,-0.2307,0.15317346375922952,-0.76,-0.222,-0.066,-4.614,-0.7626000000000002,0.11417372727558647,-0.956,-0.738,-0.562,-15.252000000000002,-103.0,0.0,-103.0,,-103.0,-412.0,,,,,,0.0,-101.0,1.632993161855452,-102.0,,-98.0,-1818.0,-89.0,3.0,-92.0,-89.0,-86.0,-1780.0
0.418875,0.019735358496870543,0.36,0.416,0.46,6.702,-0.11624999999999999,0.02845061510758599,-0.17,-0.114,-0.028,-1.8599999999999999,-0.789,0.03901922603025335,-0.864,-0.794,-0.702,-12.624,-104.0,0.0,-104.0,,-104.0,-416.0,,,,,,0.0,,,,,,0.0,-86.0,0.0,-86.0,-86.0,-86.0,-1376.0
0.4199,0.004877499359302883,0.414,0.418,0.432,8.398,-0.1105,0.005286775955154522,-0.12,-0.11,-0.098,-2.21,-0.7943000000000001,0.0075703368485160625,-0.804,-0.794,-0.778,-15.886000000000003,,,,,,0.0,,,,,,0.0,,,,,,0.0,-86.0,0.0,-86.0,-86.0,-86.0,-1720.0
0.4189000000000001,0.006244197306299665,0.406,0.422,0.428,8.378000000000002,-0.1095,0.00628887907341205,-0.126,-0.11,-0.098,-2.19,-0.7903,0.009343982020530656,-0.804,-0.79,-0.772,-15.806,,,,,,0.0,,,,,,0.0,,,,,,0.0,-86.0,0.0,-86.0,-86.0,-86.0,-1720.0
0.4197,0.008444524853418333,0.4,0.422,0.432,8.394,-0.10880000000000001,0.006144916598294888,-0.122,-0.111,-0.098,-2.176,-0.7947000000000001,0.007701298591796055,-0.814,-0.794,-0.776,-15.894000000000002,,,,,,0.0,,,,,,0.0,,,,,,0.0,-86.0,0.0,-86.0,-86.0,-86.0,-1720.0
0.5638749999999999,0.14152467761842807,0.422,0.492,0.834,9.021999999999998,-0.073625,0.2351044648129848,-0.45,-0.113,0.5,-1.178,-0.5041249999999999,0.44505306916703763,-0.89,-0.795,0.462,-8.065999999999999,-101.0,0.0,-101.0,,-101.0,-404.0,,,,,,0.0,-100.0,2.8284271247461903,-102.0,,-96.0,-600.0,-90.5,3.5,-94.0,-93.0,-86.0,-1448.0
0.8075789473684211,0.21120364724459254,0.398,0.798,1.206,15.344,0.5903157894736841,0.26366427070316023,0.152,0.582,0.956,11.216,0.08336842105263158,0.21968595061475124,-0.304,0.072,0.6,1.584,-99.77777777777777,1.617802197617893,-102.0,,-98.0,-898.0,,,,,,0.0,-99.4,5.288982258746321,-105.0,,-92.0,-1491.0,-92.73333333333333,6.115190557583268,-102.0,,-83.0,-1391.0
0.6340999999999999,0.08175689573363217,0.48,0.61,0.796,12.681999999999999,0.1167,0.1331920042645203,-0.228,0.11399999999999999,0.364,2.334,0.7898000000000001,0.15309069207499193,0.462,0.8140000000000001,1.152,15.796000000000001,-96.4375,3.2971341722774947,-102.0,,-93.0,-1543.0,,,,,,0.0,-100.0909090909091,0.7925270806437589,-101.0,,-99.0,-1101.0,-86.1,3.519943181359608,-93.0,-85.0,-83.0,-1722.0
0.581,0.01227191916531394,0.56,0.582,0.608,11.62,0.1617,0.015352849898308785,0.118,0.165,0.184,3.2340000000000004,0.8541000000000001,0.019447107754110883,0.802,0.86,0.882,17.082,-99.9090909090909,1.7814470856604931,-101.0,,-97.0,-1099.0,,,,,,0.0,-100.0,0.0,-100.0,,-100.0,-400.0,-85.85,0.3570714214271425,-86.0,-86.0,-85.0,-1717.0
0.5845999999999999,0.006421837743200935,0.572,0.584,0.594,11.691999999999998,0.16699999999999998,0.0067379522111692,0.156,0.167,0.176,3.34,0.8587,0.0083970232820923,0.846,0.86,0.876,17.174,-100.11111111111111,0.3142696805273545,-101.0,,-100.0,-901.0,,,,,,0.0,,,,,,0.0,-86.2,0.39999999999999997,-87.0,-86.0,-86.0,-1724.0
0.5794,0.01822196476782895,0.51,0.584,0.594,11.588000000000001,0.15899999999999997,0.012124355652982144,0.126,0.162,0.178,3.1799999999999997,0.8637,0.028165759354222993,0.83,0.86,0.978,17.274,-101.08333333333333,0.2763853991962833,-102.0,,-101.0,-1213.0,,,,,,0.0,,,,,,0.0,-85.7,1.3076696830622019,-86.0,-86.0,-80.0,-1714.0
0.4912000000000001,0.300694130305199,0.102,0.5229999999999999,1.04,9.824000000000002,0.3027,0.31127111976539035,-0.16,0.157,0.838,6.054,0.8158,0.1974486262297107,0.476,0.841,1.136,16.316,-101.63636363636364,0.48104569292083466,-102.0,,-101.0,-1118.0,,,,,,0.0,-100.0,2.0,-102.0,,-98.0,-800.0,-87.65,4.932291556670186,-97.0,-86.0,-80.0,-1753.0
-0.18771428571428567,0.36976815681710395,-0.778,-0.115,0.318,-2.6279999999999992,0.030999999999999996,0.3049250493388264,-0.434,-0.040999999999999995,0.574,0.43399999999999994,0.9378571428571428,0.24044062443262582,0.462,0.86,1.346,13.129999999999999,,,,,,0.0,,,,,,0.0,,,,,,0.0,-94.5,2.3222526010012654,-97.0,-95.0,-91.0,-1323.0
-0.31400000000000006,0.1410924410557735,-0.542,-0.328,-0.096,-4.082000000000001,0.252,0.16409190670521762,0.026,0.216,0.646,3.2760000000000002,0.9573846153846153,0.26822422837318505,0.384,0.982,1.402,12.445999999999998,,,,,,0.0,,,,,,0.0,,,,,,0.0,-90.84615384615384,2.4129826371320187,-94.0,-91.0,-88.0,-1181.0
-0.18439999999999998,0.039357845469486764,-0.242,-0.193,-0.106,-3.6879999999999997,0.28469999999999995,0.03988621315692931,0.208,0.288,0.374,5.693999999999999,1.0000000000000002,0.034675639864319756,0.936,1.001,1.094,20.000000000000004,,,,,,0.0,,,,,,0.0,,,,,,0.0,-87.8,1.1661903789690602,-89.0,-88.0,-86.0,-1756.0
-0.19410000000000002,0.0076282370178174215,-0.208,-0.193,-0.184,-3.8820000000000006,0.2942,0.009249864863877738,0.27,0.294,0.312,5.884,0.9942000000000002,0.00975499871860577,0.974,0.998,1.008,19.884000000000004,,,,,,0.0,,,,,,0.0,,,,,,0.0,-88.85,0.4769696007084729,-90.0,-89.0,-88.0,-1777.0
-0.19690000000000002,0.008659676668328904,-0.218,-0.197,-0.182,-3.9380000000000006,0.28140000000000004,0.006902173570694946,0.264,0.28,0.296,5.628000000000001,0.9986999999999998,0.009905049217444615,0.982,0.998,1.016,19.973999999999997,,,,,,0.0,,,,,,0.0,,,,,,0.0,-88.55,0.739932429347437,-90.0,-88.0,-88.0,-1771.0
-0.317875,0.14784023259924886,-0.68,-0.273,-0.168,-5.086,0.398625,0.19288172379725352,0.252,0.324,0.998,6.378,0.94175,0.11145374601151817,0.568,0.992,1.03,15.068,,,,,,0.0,,,,,,0.0,,,,,,0.0,-89.4375,2.9361699116365862,-93.0,-90.0,-85.0,-1431.0
-0.8052000000000001,0.16859822063117985,-1.364,-0.777,-0.626,-16.104000000000003,0.3846,0.1515151477575757,0.192,0.337,0.79,7.692,0.20779999999999998,0.08254671404725933,0.03,0.217,0.332,4.156,,,,,,0.0,,,,,,0.0,,,,,,0.0,-85.7,3.4510867853474796,-92.0,-86.0,-81.0,-1714.0
-0.8579000000000001,0.02120825311052282,-0.914,-0.853,-0.826,-17.158,0.3351,0.02117049834085159,0.286,0.33999999999999997,0.368,6.702,0.32659999999999995,0.015206577524216294,0.294,0.334,0.352,6.531999999999999,,,,,,0.0,,,,,,0.0,,,,,,0.0,-88.65,0.7921489758877429,-90.0,-89.0,-87.0,-1773.0
-0.8509,0.03582443300318934,-0.92,-0.847,-0.77,-17.018,0.3318999999999999,0.024903614195533948,0.29,0.326,0.376,6.637999999999998,0.32209999999999994,0.019974734040782625,0.294,0.319,0.376,6.441999999999999,,,,,,0.0,,,,,,0.0,,,,,,0.0,-86.15,0.3570714214271425,-87.0,-86.0,-86.0,-1723.0
-0.8465999999999999,0.022316809807855588,-0.872,-0.852,-0.788,-16.932,0.3463,0.020883246873989684,0.31,0.346,0.4,6.926,0.28480000000000005,0.04220616068774794,0.184,0.302,0.324,5.696000000000001,,,,,,0.0,,,,,,0.0,,,,,,0.0,-86.65,1.7399712641305316,-89.0,-86.0,-84.0,-1733.0
-0.8813000000000001,0.11926822711854153,-1.12,-0.848,-0.704,-17.626,0.1929,0.07667457205619085,0.082,0.18,0.374,3.8579999999999997,0.012199999999999994,0.09686258307519989,-0.144,0.039,0.178,0.24399999999999988,,,,,,0.0,,,,,,0.0,-101.0,0.0,-101.0,,-101.0,-404.0,-85.95,3.3087006513131403,-90.0,-87.0,-82.0,-1719.0
-0.9424999999999999,0.0733754045985438,-1.074,-0.905,-0.852,-18.849999999999998,0.199,0.01814938015470501,0.162,0.202,0.23,3.98,-0.1156,0.019530488985173924,-0.152,-0.115,-0.09,-2.312,,,,,,0.0,,,,,,0.0,,,,,,0.0,-93.0,3.7416573867739413,-99.0,-91.0,-89.0,-1860.0
-0.8931000000000001,0.007469270379361032,-0.904,-0.895,-0.872,-17.862000000000002,0.2056,0.006887670143089021,0.19,0.206,0.216,4.112,-0.1306,0.009551963149007641,-0.154,-0.131,-0.112,-2.612,,,,,,0.0,,,,,,0.0,,,,,,0.0,-91.95,3.412843389316304,-98.0,-90.0,-89.0,-1839.0
-0.8921000000000001,0.007442445834535854,-0.906,-0.894,-0.878,-17.842000000000002,0.20500000000000002,0.00760263112349928,0.192,0.205,0.22,4.1000000000000005,-0.1381,0.007056202944927247,-0.158,-0.136,-0.122,-2.762,,,,,,0.0,,,,,,0.0,,,,,,0.0,-92.85,0.9096702699330126,-94.0,-93.0,-90.0,-1857.0
-0.9945,0.09266471820493495,-1.136,-0.969,-0.888,-19.89,0.2012,0.030314353036144444,0.152,0.21,0.252,4.024,-0.15350000000000003,0.03197420835611102,-0.24,-0.144,-0.104,-3.0700000000000003,,,,,,0.0,,,,,,0.0,,,,,,0.0,-90.2,4.142463035441596,-96.0,-90.0,-84.0,-1804.0
-0.7857999999999999,0.11053126254594219,-0.936,-0.832,-0.6,-15.716,0.2914,0.04605692130396907,0.21,0.3,0.364,5.827999999999999,0.2008,0.14344253204680962,-0.078,0.278,0.342,4.016,,,,,,0.0,,,,,,0.0,,,,,,0.0,-87.0,1.0954451150103321,-89.0,-87.0,-86.0,-1740.0
-0.8595,0.011846940533319151,-0.89,-0.857,-0.84,-17.19,0.32059999999999994,0.023724249197814455,0.262,0.326,0.358,6.411999999999999,0.3265,0.021474403367730613,0.28,0.327,0.354,6.53,,,,,,0.0,,,,,,0.0,,,,,,0.0,-88.2,1.077032961426901,-90.0,-88.0,-86.0,-1764.0
-0.858,0.006324555320336764,-0.866,-0.858,-0.846,-17.16,0.3258,0.019140532907941727,0.304,0.321,0.4,6.516,0.32110000000000005,0.010685972113008728,0.302,0.322,0.336,6.422000000000001,,,,,,0.0,,,,,,0.0,,,,,,0.0,-89.55,0.4974937185533099,-90.0,-90.0,-89.0,-1791.0
-0.8475999999999999,0.0244589451939367,-0.868,-0.858,-0.776,-16.951999999999998,0.3325,0.04015905875391006,0.278,0.324,0.44,6.65,0.3093,0.020122375605280806,0.254,0.309,0.358,6.186,,,,,,0.0,,,,,,0.0,,,,,,0.0,-88.95,2.0609463845524947,-91.0,-90.0,-84.0,-1779.0
-0.8135999999999999,0.11932744864447577,-1.048,-0.815,-0.596,-16.272,0.3630999999999999,0.14642332464467536,-0.158,0.388,0.568,7.261999999999999,0.19939999999999997,0.11267848064293377,-0.112,0.217,0.424,3.9879999999999995,,,,,,0.0,,,,,,0.0,,,,,,0.0,-90.1,7.628237017817418,-102.0,-86.0,-82.0,-1802.0
-0.916875,0.07195473837767741,-1.082,-0.909,-0.794,-14.67,0.34850000000000003,0.08409964328105084,0.2,0.365,0.506,5.5760000000000005,0.22975,0.06532945354126268,0.144,0.23199999999999998,0.358,3.676,,,,,,0.0,,,,,,0.0,,,,,,0.0,-89.0,6.284902544988268,-102.0,-86.0,-85.0,-1424.0
,,,,,,,,,,,,,,,,,,,,,,,,,,,,,,,,,,,,,,,,,
,,,,,,,,,,,,,,,,,,,,,,,,,,,,,,,,,,,,,,,,,
-0.94875,0.09917629505078317,-1.138,-0.915,-0.856,-7.59,0.46975,0.10924027416662775,0.39,0.402,0.68,3.758,0.258,0.1079583252926795,0.166,0.215,0.444,2.064,,,,,,0.0,,,,,,0.0,,,,,,0.0,-89.5,1.9364916731037085,-91.0,-91.0,-87.0,-716.0
-0.8341,0.1391581474438346,-1.076,-0.832,-0.616,-16.682,0.32680000000000003,0.05801172295321007,0.24,0.3,0.44,6.5360000000000005,0.1222,0.06521318885010914,-0.004,0.123,0.23,2.444,,,,,,0.0,,,,,,0.0,,,,,,0.0,-88.3,4.744470465710583,-96.0,-88.0,-82.0,-1766.0
-0.8622000000000002,0.041162604387963604,-0.958,-0.857,-0.782,-17.244000000000003,0.3345,0.034104984972874564,0.294,0.327,0.408,6.69,0.3014,0.04032914578812697,0.23,0.304,0.368,6.028,,,,,,0.0,,,,,,0.0,,,,,,0.0,-88.9,3.40440890610984,-95.0,-89.0,-85.0,-1778.0
-0.8515999999999998,0.00958331884056876,-0.868,-0.85,-0.834,-17.031999999999996,0.3356,0.011359577456930333,0.312,0.337,0.352,6.712000000000001,0.3338,0.014558846108122709,0.312,0.33,0.366,6.676,,,,,,0.0,,,,,,0.0,,,,,,0.0,-90.1,2.605762844159076,-95.0,-89.0,-87.0,-1802.0
-0.8634999999999999,0.004189272013130686,-0.872,-0.864,-0.858,-17.27,0.3242,0.011469960767151732,0.306,0.326,0.35,6.484,0.305,0.006371812928829603,0.288,0.305,0.316,6.1,,,,,,0.0,,,,,,0.0,,,,,,0.0,-89.6,0.7999999999999999,-91.0,-89.0,-89.0,-1792.0
-0.8233,0.11210936624564428,-1.08,-0.835,-0.574,-16.466,0.3484,0.10974625278340942,0.048,0.348,0.59,6.968,0.19669999999999999,0.12422282398979666,-0.132,0.16799999999999998,0.472,3.9339999999999997,,,,,,0.0,,,,,,0.0,-99.0,0.0,-99.0,,-99.0,-99.0,-86.25,2.5074887836239665,-89.0,-86.0,-82.0,-1725.0
-0.3589,0.34973274081789946,-0.922,-0.10600000000000001,-0.008,-7.178,0.5154000000000001,0.22690888039034524,0.062,0.558,0.798,10.308000000000002,0.6778000000000001,0.29106281109066473,0.208,0.637,1.148,13.556000000000001,,,,,,0.0,,,,,,0.0,-98.25,1.299038105676658,-99.0,,-96.0,-393.0,-88.85,2.8857408061016154,-95.0,-88.0,-86.0,-1777.0
-0.200875,0.11667255193489169,-0.634,-0.16999999999999998,-0.128,-3.214,0.20875,0.26785525475525024,-0.552,0.199,0.878,3.34,1.104625,0.3424527111514815,0.824,1.021,2.402,17.674,,,,,,0.0,,,,,,0.0,-96.75,0.4330127018922193,-97.0,,-96.0,-1161.0,-99.58333333333333,3.4751099103321734,-104.0,,-95.0,-1195.0
-0.1716,0.009372299611087981,-0.188,-0.17,-0.154,-3.432,0.20060000000000003,0.008368990381163066,0.178,0.204,0.21,4.0120000000000005,1.0214999999999999,0.011043097391583587,0.998,1.022,1.04,20.429999999999996,-101.0,0.0,-101.0,,-101.0,-505.0,,,,,,0.0,-95.7,0.714142842854285,-97.0,-96.0,-95.0,-1914.0,-98.75,1.6393596310755,-102.0,-98.0,-97.0,-1975.0
-0.16762499999999997,0.007880950133074051,-0.18,-0.166,-0.158,-2.6819999999999995,0.2005,0.009861541461658007,0.184,0.198,0.222,3.208,1.026,0.012922847983320098,0.994,1.03,1.046,16.416,-101.0,0.0,-101.0,,-101.0,-404.0,,,,,,0.0,-95.5,0.5,-96.0,-95.5,-95.0,-1528.0,-98.3125,3.3674684482560484,-104.0,-97.0,-94.0,-1573.0
-0.46320000000000006,0.3712128230543767,-1.412,-0.309,0.062,-9.264000000000001,0.2713,0.254637997950031,-0.098,0.187,0.878,5.426,0.8245000000000001,0.18821145023616392,0.55,0.794,1.272,16.490000000000002,-101.0,0.0,-101.0,,-101.0,-303.0,,,,,,0.0,-97.85714285714286,2.4743582965269675,-100.0,,-95.0,-685.0,-97.85,3.1980462785894765,-102.0,-99.0,-94.0,-1957.0
-0.20075,0.6218697110327854,-0.974,-0.118,0.696,-1.606,0.269,0.20559426062028094,0.022,0.289,0.61,2.152,0.6045,0.1417700603089383,0.392,0.588,0.908,4.836,-100.0,0.0,-100.0,,-100.0,-100.0,,,,,,0.0,-98.0,0.0,-98.0,,-98.0,-490.0,-92.5,2.5,-95.0,-92.5,-90.0,-740.0
0.7056000000000001,0.1375305057069158,0.55,0.667,1.022,14.112000000000002,0.12840000000000001,0.22322688010183722,-0.168,0.10400000000000001,0.624,2.5680000000000005,0.7203,0.2193720811771635,0.358,0.755,1.064,14.406,-98.28571428571429,1.4846149779161806,-100.0,,-97.0,-688.0,,,,,,0.0,-96.95,3.427462618322773,-101.0,-98.0,-92.0,-1939.0,-85.15,4.362052269287932,-95.0,-83.0,-82.0,-1703.0
0.5426000000000001,0.03953277121579006,0.444,0.551,0.6,10.852000000000002,0.1752,0.1007261634333404,-0.034,0.188,0.348,3.504,0.8845000000000001,0.05134929405551746,0.784,0.879,0.984,17.69,,,,,,0.0,,,,,,0.0,-95.52631578947368,1.093926825832975,-96.0,,-93.0,-1815.0,-82.85,0.3570714214271425,-83.0,-83.0,-82.0,-1657.0
0.5309,0.016005936398724066,0.496,0.528,0.574,10.618,0.1747,0.011954497061775541,0.15,0.176,0.194,3.4939999999999998,0.8884000000000001,0.010725670142233548,0.852,0.888,0.902,17.768,,,,,,0.0,,,,,,0.0,-95.82352941176471,0.5128116404165498,-97.0,,-95.0,-1629.0,-82.8,0.39999999999999997,-83.0,-83.0,-82.0,-1656.0
0.5336,0.0057827329179203895,0.52,0.534,0.544,10.671999999999999,0.1703,0.00642728558568856,0.158,0.172,0.18,3.406,0.8907999999999999,0.007386474125047761,0.872,0.892,0.902,17.816,,,,,,0.0,,,,,,0.0,-95.75,1.0897247358851685,-97.0,,-94.0,-1532.0,-82.6,0.4898979485566356,-83.0,-83.0,-82.0,-1652.0
0.5244,0.024294855422496358,0.44,0.528,0.56,10.488,0.1514,0.049128810284801316,-0.016,0.169,0.192,3.028,0.9030999999999999,0.023327880315193672,0.83,0.902,0.958,18.061999999999998,,,,,,0.0,,,,,,0.0,-95.75,0.82915619758885,-97.0,,-95.0,-1532.0,-82.35,1.194780314534852,-83.0,-83.0,-80.0,-1647.0
0.59875,0.25106361245708225,0.316,0.575,1.494,9.58,0.226375,0.3821669914775477,-0.688,0.254,0.746,3.622,0.254625,0.789715999188949,-0.928,0.616,1.12,4.074,-90.0,0.0,-90.0,,-90.0,-360.0,,,,,,0.0,-95.28571428571429,1.4846149779161806,-97.0,,-94.0,-667.0,-89.25,7.241374178980119,-102.0,-90.0,-82.0,-1428.0
0.5555000000000001,0.059702177514727214,0.446,0.556,0.702,11.110000000000001,-0.1412,0.10493312155844789,-0.304,-0.138,0.014,-2.824,-0.7108000000000001,0.0929287899415461,-0.912,-0.703,-0.514,-14.216000000000003,,,,,,0.0,,,,,,0.0,,,,,,0.0,-91.25,5.0682837331783235,-102.0,-90.0,-86.0,-1825.0
0.5246000000000001,0.016175289796476613,0.494,0.526,0.558,10.492,-0.028100000000000003,0.015600961508830155,-0.066,-0.024,-0.008,-0.562,-0.7283999999999999,0.047263516585205556,-0.802,-0.74,-0.618,-14.567999999999998,,,,,,0.0,,,,,,0.0,,,,,,0.0,-89.55,1.0712142642814275,-90.0,-90.0,-87.0,-1791.0
0.5244000000000001,0.01458218090684654,0.498,0.525,0.578,10.488000000000001,-0.0204,0.0063118935352238,-0.032,-0.02,-0.008,-0.40800000000000003,-0.7455,0.007896201618499878,-0.762,-0.744,-0.73,-14.91,,,,,,0.0,,,,,,0.0,,,,,,0.0,-90.25,0.4330127018922193,-91.0,-90.0,-90.0,-1805.0
0.5242000000000002,0.003736308338453884,0.518,0.524,0.532,10.484000000000004,-0.017100000000000004,0.004624932431938871,-0.026,-0.016,-0.008,-0.3420000000000001,-0.7445,0.005545268253204714,-0.754,-0.744,-0.736,-14.89,,,,,,0.0,,,,,,0.0,,,,,,0.0,-90.15,0.3570714214271425,-91.0,-90.0,-90.0,-1803.0
0.5202,0.0063529520697074415,0.508,0.52,0.534,10.404,-0.017700000000000004,0.003363034344160047,-0.026,-0.016,-0.014,-0.3540000000000001,-0.7445,0.008096295449154516,-0.756,-0.744,-0.722,-14.89,,,,,,0.0,,,,,,0.0,,,,,,0.0,-90.0,0.0,-90.0,-90.0,-90.0,-1800.0
0.524,0.009107544587925594,0.504,0.526,0.548,9.956,-0.01747368421052632,0.006644098458130316,-0.032,-0.016,-0.002,-0.3320000000000001,-0.746421052631579,0.015688801871243233,-0.792,-0.744,-0.704,-14.182,,,,,,0.0,,,,,,0.0,,,,,,0.0,-90.21052631578948,0.40768245749551757,-91.0,-90.0,-90.0,-1714.0
0.6242000000000001,0.09295783990605633,0.472,0.606,0.866,12.484000000000002,0.10979999999999998,0.3602481922230839,-0.416,-0.028999999999999998,0.868,2.1959999999999997,-0.22899999999999995,0.5409297551438633,-0.928,-0.328,0.542,-4.579999999999999,-95.66666666666667,1.8856180831641267,-97.0,,-93.0,-1148.0,,,,,,0.0,-98.0,4.0,-102.0,,-94.0,-784.0,-94.4,5.351635264103861,-103.0,-95.0,-87.0,-1888.0
0.7527000000000001,0.17354570003316128,0.446,0.744,1.084,15.054000000000002,0.36310000000000003,0.3404276575133107,-0.136,0.33799999999999997,0.91,7.2620000000000005,0.472,0.29102508482946965,-0.016,0.44699999999999995,0.984,9.44,-93.0,0.0,-93.0,,-93.0,-1116.0,,,,,,0.0,-96.25,0.82915619758885,-97.0,,-95.0,-1540.0,-86.0,2.943920288775949,-89.0,,-82.0,-1032.0
0.5818,0.053832703814688694,0.478,0.566,0.728,11.636,0.21230000000000002,0.047708594613549454,0.088,0.208,0.304,4.246,0.8464,0.04786898787315228,0.72,0.86,0.91,16.928,-100.0,2.23606797749979,-103.0,,-97.0,-1600.0,,,,,,0.0,,,,,,0.0,-84.6,1.8547236990991407,-88.0,-84.0,-83.0,-1692.0
0.5534999999999999,0.010952168735004032,0.528,0.556,0.574,11.069999999999999,0.1942,0.00956869897112455,0.166,0.198,0.206,3.8840000000000003,0.8747000000000001,0.008006872048434402,0.856,0.874,0.888,17.494000000000003,-99.0,0.7071067811865476,-100.0,,-98.0,-1584.0,,,,,,0.0,-91.5,0.5,-92.0,,-91.0,-732.0,-84.2,0.39999999999999997,-85.0,-84.0,-84.0,-1684.0
0.5597000000000001,0.0056665686266028446,0.55,0.559,0.572,11.194000000000003,0.19350000000000003,0.005826662852782886,0.184,0.193,0.204,3.8700000000000006,0.8638,0.007208328516376046,0.854,0.863,0.878,17.276,-99.4,1.9595917942265424,-103.0,-98.0,-98.0,-1988.0,,,,,,0.0,-91.5,0.5,-92.0,,-91.0,-732.0,-84.8,0.7483314773547882,-86.0,-85.0,-84.0,-1696.0
0.5522,0.009775479527879959,0.514,0.554,0.562,11.044,0.1957,0.012685030547854425,0.15,0.198,0.208,3.914,0.8733000000000001,0.009301075206662946,0.86,0.871,0.902,17.466,-100.0,0.816496580927726,-101.0,,-99.0,-1200.0,,,,,,0.0,,,,,,0.0,-84.8,0.7483314773547882,-86.0,-85.0,-84.0,-1696.0
0.5713,0.26027468182671937,0.104,0.554,1.15,11.426,0.3069,0.28191876489513784,-0.058,0.23199999999999998,0.872,6.138,0.7929999999999999,0.15973164996330563,0.422,0.853,0.972,15.86,-102.0,0.0,-102.0,,-102.0,-408.0,,,,,,0.0,-99.5,2.5,-102.0,,-97.0,-796.0,-89.6,6.770524351924302,-102.0,-89.0,-83.0,-1792.0
-0.29625,0.5118651555829914,-1.288,-0.038,0.192,-4.74,0.326,0.24303086223770015,-0.01,0.269,1.022,5.216,0.877875,0.20916078593990797,0.462,0.894,1.212,14.046,,,,,,0.0,,,,,,0.0,,,,,,0.0,-97.75,3.191786333700926,-102.0,-98.0,-93.0,-1564.0
-0.3782,0.31022501511000045,-0.864,-0.434,0.06,-7.564,0.45709999999999995,0.23929101529309452,0.248,0.422,1.438,9.142,0.8370000000000001,0.3125645533325876,0.642,0.787,2.172,16.740000000000002,,,,,,0.0,,,,,,0.0,-103.0,0.0,-103.0,,-103.0,-412.0,-94.0,2.8284271247461903,-99.0,-93.0,-91.0,-1880.0
-0.1285,0.03528668304048993,-0.206,-0.137,-0.046,-2.5700000000000003,0.29229999999999995,0.14203277790707328,-0.272,0.334,0.414,5.845999999999999,0.9771000000000001,0.12553640906127592,0.518,0.986,1.248,19.542,,,,,,0.0,,,,,,0.0,,,,,,0.0,-93.6,0.4898979485566356,-94.0,-94.0,-93.0,-1872.0
-0.129,0.008774964387392122,-0.148,-0.128,-0.11,-2.58,0.3218,0.013998571355677704,0.294,0.322,0.342,6.436,0.9900000000000002,0.013023056476879775,0.952,0.993,1.006,19.800000000000004,,,,,,0.0,,,,,,0.0,,,,,,0.0,-93.6,0.4898979485566356,-94.0,-94.0,-93.0,-1872.0
-0.1265,0.007399324293474374,-0.138,-0.127,-0.112,-2.5300000000000002,0.3239,0.007224264668462811,0.306,0.323,0.336,6.478000000000001,0.9963999999999998,0.007605261336732624,0.982,0.998,1.008,19.927999999999997,,,,,,0.0,,,,,,0.0,,,,,,0.0,-93.4,0.4898979485566356,-94.0,-93.0,-93.0,-1868.0
-0.1429,0.02954640418054285,-0.24,-0.131,-0.114,-2.858,0.3223,0.01581486642371664,0.278,0.321,0.364,6.446,0.9950000000000001,0.010324727599312255,0.972,0.993,1.022,19.900000000000002,,,,,,0.0,,,,,,0.0,,,,,,0.0,-93.8,0.7483314773547882,-95.0,-94.0,-93.0,-1876.0
-0.5346,0.41148564981053715,-1.14,-0.661,0.246,-10.692,0.47420000000000007,0.19068812233592314,0.162,0.46399999999999997,0.798,9.484000000000002,0.5838000000000001,0.3550712041267216,-0.01,0.53,1.112,11.676000000000002,,,,,,0.0,,,,,,0.0,,,,,,0.0,-87.8,2.6381811916545836,-91.0,-86.0,-85.0,-1756.0
-0.7847999999999999,0.14432934559541244,-1.01,-0.806,-0.528,-15.696,0.3148000000000001,0.058639236011394286,0.23,0.303,0.43,6.296000000000002,0.30329999999999996,0.09046607098796763,0.096,0.333,0.406,6.065999999999999,,,,,,0.0,,,,,,0.0,,,,,,0.0,-87.4,2.244994432064365,-90.0,-87.0,-85.0,-1748.0
-0.8648,0.14735182387741252,-1.3,-0.844,-0.672,-17.296,0.3104,0.041523968981782074,0.232,0.311,0.398,6.208,0.36060000000000003,0.02923080566799349,0.288,0.366,0.416,7.212000000000001,,,,,,0.0,,,,,,0.0,,,,,,0.0,-88.4,1.624807680927192,-90.0,-89.0,-86.0,-1768.0
-0.8595,0.007372245248226627,-0.872,-0.858,-0.846,-17.19,0.29359999999999997,0.01631686244349691,0.27,0.293,0.338,5.872,0.3499,0.009517877914745483,0.332,0.35,0.366,6.998,,,,,,0.0,,,,,,0.0,,,,,,0.0,-87.6,0.4898979485566356,-88.0,-88.0,-87.0,-1752.0
-0.8391,0.0385926158740244,-0.884,-0.852,-0.752,-16.782,0.26559999999999995,0.036219331854687765,0.198,0.277,0.318,5.3119999999999985,0.32880000000000004,0.07728751516254097,0.078,0.346,0.4,6.5760000000000005,,,,,,0.0,,,,,,0.0,,,,,,0.0,-86.4,2.416609194718914,-89.0,-87.0,-82.0,-1728.0
-0.9292,0.1129520252142475,-1.07,-0.966,-0.718,-18.584,0.24619999999999992,0.03567576208015745,0.176,0.242,0.32,4.923999999999999,-0.0492,0.03485627633583369,-0.104,-0.052000000000000005,-0.002,-0.984,,,,,,0.0,,,,,,0.0,-102.0,0.0,-102.0,,-102.0,-408.0,-85.8,4.1182520563948,-90.0,-86.0,-79.0,-1716.0
-0.9105000000000001,0.058418746991013105,-1.054,-0.91,-0.816,-18.21,0.25250000000000006,0.019410048943781677,0.206,0.251,0.294,5.050000000000001,-0.06000000000000001,0.03536099546110092,-0.116,-0.062,-0.002,-1.2000000000000002,,,,,,0.0,,,,,,0.0,,,,,,0.0,-78.0,0.0,-78.0,-78.0,-78.0,-1560.0
-0.8971,0.010246462804304723,-0.914,-0.896,-0.878,-17.942,0.23629999999999995,0.008701149349367585,0.216,0.238,0.254,4.725999999999999,-0.06300000000000001,0.011340194001867868,-0.08,-0.064,-0.036,-1.2600000000000002,,,,,,0.0,,,,,,0.0,,,,,,0.0,-78.0,0.0,-78.0,-78.0,-78.0,-1560.0
-0.9107,0.03572268187020678,-1.044,-0.9,-0.882,-18.214,0.2432,0.007467261881037792,0.232,0.24,0.268,4.864,-0.07170000000000001,0.016519987893458033,-0.122,-0.067,-0.05,-1.4340000000000002,,,,,,0.0,,,,,,0.0,,,,,,0.0,-78.0,0.0,-78.0,-78.0,-78.0,-1560.0
-0.8881,0.1647330871440222,-1.114,-0.903,-0.656,-17.762,0.2669,0.051870897428134013,0.174,0.269,0.354,5.338,-0.03679999999999999,0.11054302329862342,-0.184,-0.062,0.244,-0.7359999999999999,,,,,,0.0,,,,,,0.0,,,,,,0.0,-82.4,1.0198039027185568,-84.0,-82.0,-81.0,-1648.0
-0.8504999999999999,0.05195719391961041,-1.0,-0.852,-0.72,-17.009999999999998,0.3275,0.03631459761583487,0.254,0.33999999999999997,0.376,6.550000000000001,0.29419999999999996,0.04145793048380491,0.224,0.314,0.348,5.8839999999999995,,,,,,0.0,,,,,,0.0,,,,,,0.0,-84.4,1.0198039027185568,-86.0,-84.0,-83.0,-1688.0
-0.8553000000000001,0.006641535966928139,-0.872,-0.858,-0.84,-17.106,0.3277,0.01717294383616274,0.298,0.324,0.358,6.554,0.314,0.007155417527999333,0.3,0.316,0.328,6.28,,,,,,0.0,,,,,,0.0,,,,,,0.0,-85.6,0.4898979485566356,-86.0,-86.0,-85.0,-1712.0
-0.85,0.031260198335903114,-0.878,-0.858,-0.744,-17.0,0.32460000000000006,0.024290738975996592,0.264,0.332,0.368,6.492000000000001,0.3153,0.01862552012696558,0.272,0.317,0.364,6.306,,,,,,0.0,,,,,,0.0,,,,,,0.0,-86.0,0.0,-86.0,-86.0,-86.0,-1720.0
-0.8507368421052632,0.1398317944815214,-1.224,-0.834,-0.692,-16.164,0.27042105263157895,0.14422727524711737,-0.01,0.326,0.462,5.138,0.13315789473684211,0.13552753193118122,-0.112,0.166,0.422,2.5300000000000002,,,,,,0.0,,,,,,0.0,-105.0,0.0,-105.0,,-105.0,-420.0,-89.26315789473684,5.179332463217913,-97.0,-87.0,-84.0,-1696.0
-0.9280000000000002,0.08711371878183138,-1.096,-0.906,-0.788,-18.560000000000002,0.3366,0.10454109239911356,-0.024,0.34299999999999997,0.504,6.732,0.1497,0.06470015455932081,-0.032,0.167,0.248,2.994,,,,,,0.0,,,,,,0.0,,,,,,0.0,-92.6,4.079215610874228,-100.0,-90.0,-89.0,-1852.0
-0.8630000000000001,0.01599374877881982,-0.916,-0.86,-0.842,-17.26,0.3924,0.042202369601717866,0.316,0.386,0.502,7.848000000000001,0.16960000000000003,0.016548111674750083,0.13,0.16999999999999998,0.198,3.392000000000001,,,,,,0.0,,,,,,0.0,,,,,,0.0,-90.8,0.4,-91.0,-91.0,-90.0,-1816.0
-0.8608999999999998,0.007549172140042914,-0.874,-0.859,-0.848,-17.217999999999996,0.37960000000000005,0.008979977728257468,0.366,0.376,0.398,7.592000000000001,0.173,0.011618950038622249,0.152,0.172,0.192,3.46,,,,,,0.0,,,,,,0.0,,,,,,0.0,-90.0,0.0,-90.0,-90.0,-90.0,-1800.0
-0.8652000000000001,0.013136209498938432,-0.914,-0.864,-0.846,-17.304000000000002,0.3964,0.047680604023019685,0.336,0.38,0.536,7.927999999999999,0.1767,0.025465859498552172,0.112,0.177,0.24,3.534,,,,,,0.0,,,,,,0.0,,,,,,0.0,-88.4,1.4966629547095764,-90.0,-88.0,-86.0,-1768.0
-0.8785000000000001,0.13501981336085456,-1.21,-0.872,-0.698,-17.57,0.2954,0.13936441439621522,0.064,0.275,0.564,5.908,0.163,0.11760187073341989,-0.062,0.19,0.384,3.2600000000000002,,,,,,0.0,,,,,,0.0,,,,,,0.0,-88.8,2.6381811916545836,-94.0,-88.0,-87.0,-1776.0
-0.8646,0.04644609779088014,-0.978,-0.857,-0.788,-17.292,0.31550000000000006,0.06430202174115522,0.206,0.315,0.414,6.310000000000001,0.2653,0.06306591789548456,0.16,0.297,0.342,5.305999999999999,,,,,,0.0,,,,,,0.0,,,,,,0.0,-85.6,0.4898979485566356,-86.0,-86.0,-85.0,-1712.0
-0.8607999999999999,0.017780888616714313,-0.89,-0.864,-0.826,-17.215999999999998,0.3041999999999999,0.03326800264518445,0.248,0.298,0.374,6.083999999999999,0.3351999999999999,0.011391224692718508,0.31,0.335,0.352,6.703999999999998,,,,,,0.0,,,,,,0.0,,,,,,0.0,-88.6,1.2,-90.0,-88.0,-87.0,-1772.0
-0.8645999999999999,0.005624944444170098,-0.872,-0.866,-0.852,-17.291999999999998,0.3069,0.01584266391740986,0.278,0.304,0.336,6.138,0.3117,0.012669254121691613,0.278,0.312,0.344,6.234,,,,,,0.0,,,,,,0.0,,,,,,0.0,-84.6,0.7999999999999999,-86.0,-84.0,-84.0,-1692.0
-0.8881,0.03997736859774541,-0.958,-0.89,-0.782,-17.762,0.30720000000000003,0.025685793738952276,0.264,0.31,0.348,6.144000000000001,0.1503,0.07018625221508838,0.012,0.16199999999999998,0.268,3.006,,,,,,0.0,,,,,,0.0,,,,,,0.0,-85.8,4.664761515876241,-94.0,-83.0,-82.0,-1716.0
-0.83375,0.15402252270366176,-1.264,-0.8280000000000001,-0.578,-13.34,0.3515,0.22679451051557661,-0.03,0.353,0.69,5.624,0.2565,0.16845696779890107,-0.048,0.239,0.7,4.104,,,,,,0.0,,,,,,0.0,,,,,,0.0,-85.5,1.118033988749895,-87.0,-85.5,-84.0,-1368.0
-0.17470000000000002,0.104165781329571,-0.388,-0.181,-0.002,-3.494,0.3339,0.1380441596011943,0.114,0.304,0.616,6.677999999999999,0.9833000000000001,0.07783129190756122,0.8,0.994,1.102,19.666,,,,,,0.0,,,,,,0.0,,,,,,0.0,-90.8,6.675327707311455,-102.0,-89.0,-83.0,-1816.0
-0.21020000000000003,0.008146164741766519,-0.226,-0.209,-0.194,-4.204000000000001,0.32289999999999996,0.011017713011328626,0.3,0.325,0.344,6.457999999999999,0.9827000000000001,0.010474254150057663,0.968,0.981,1.004,19.654000000000003,,,,,,0.0,,,,,,0.0,,,,,,0.0,-84.8,0.9797958971132713,-86.0,-85.0,-83.0,-1696.0
-0.2618,0.16870198576187537,-0.826,-0.201,-0.186,-5.236,0.29460000000000003,0.08677119337660397,-0.024,0.32,0.342,5.892,0.9774999999999998,0.03536594407053204,0.87,0.982,1.072,19.549999999999997,,,,,,0.0,,,,,,0.0,,,,,,0.0,-86.0,1.0954451150103321,-88.0,-86.0,-85.0,-1720.0
-0.7030000000000001,0.42368785680026283,-1.696,-0.808,0.152,-14.060000000000002,0.2523,0.368001779887,-0.272,0.152,1.112,5.046,0.6422,0.20084511445389952,0.37,0.604,1.224,12.844,-101.0,0.0,-101.0,,-101.0,-404.0,,,,,,0.0,-102.0,0.0,-102.0,,-102.0,-408.0,-97.8,3.4292856398964493,-102.0,-98.0,-93.0,-1956.0
0.44487499999999996,0.6096101084914849,-0.804,0.447,1.552,7.117999999999999,0.403125,0.3444401027392136,0.028,0.30600000000000005,1.272,6.45,0.5369999999999999,0.23140980964514013,0.35,0.483,1.388,8.591999999999999,-102.0,0.0,-102.0,,-102.0,-408.0,,,,,,0.0,-102.0,2.0,-104.0,,-100.0,-816.0,-93.0,3.0,-96.0,-94.0,-88.0,-1488.0
0.7052,0.0661465040648408,0.57,0.699,0.828,14.104000000000001,0.0875,0.13450780646490373,-0.096,0.08,0.504,1.75,0.7434000000000001,0.09788789506369007,0.614,0.722,0.992,14.868,-94.8,3.3105890714493693,-101.0,-94.0,-92.0,-1896.0,,,,,,0.0,-92.6,1.0198039027185568,-94.0,-93.0,-91.0,-1852.0,-82.0,2.5298221281347035,-86.0,-80.0,-80.0,-1640.0
0.6066,0.0776687839482504,0.464,0.597,0.732,12.132000000000001,0.30260000000000004,0.12943739799609694,0.096,0.308,0.614,6.0520000000000005,0.7856,0.08599441842352328,0.568,0.819,0.896,15.712,-102.0,0.0,-102.0,,-102.0,-408.0,,,,,,0.0,-94.0,1.0,-95.0,,-93.0,-752.0,-84.0,0.6324555320336759,-85.0,-84.0,-83.0,-1680.0
0.5663750000000001,0.010349365922606045,0.542,0.567,0.582,9.062000000000001,0.304875,0.010439558180306301,0.284,0.303,0.326,4.878,0.8245,0.010641898326896375,0.8,0.824,0.838,13.192,,,,,,0.0,,,,,,0.0,-95.0,0.0,-95.0,,-95.0,-1140.0,-84.25,0.4330127018922193,-85.0,-84.0,-84.0,-1348.0
0.5449,0.01707014938423213,0.496,0.55,0.562,10.898000000000001,0.3053,0.04834159699472081,0.166,0.316,0.382,6.106,0.8446,0.05349429876164376,0.798,0.83,1.052,16.892,,,,,,0.0,,,,,,0.0,-97.8,1.9390719429665317,-101.0,-97.0,-96.0,-1956.0,-84.8,2.1354156504062627,-89.0,-84.0,-83.0,-1696.0
0.6414,0.23543245315801303,0.24,0.635,1.248,12.828,0.2254,0.4445533038905458,-0.646,0.367,0.888,4.508,0.01000000000000002,0.697947849054641,-1.102,-0.008,0.882,0.2000000000000004,-94.0,4.96655480858378,-98.0,,-87.0,-1128.0,,,,,,0.0,-96.5,0.5,-97.0,,-96.0,-772.0,-90.0,4.33589667773576,-95.0,-90.0,-83.0,-1800.0
0.5120999999999999,0.03767479263380226,0.434,0.517,0.578,10.241999999999997,-0.14420000000000002,0.07317622564740546,-0.314,-0.125,-0.026,-2.8840000000000003,-0.7507,0.07347727539858837,-0.882,-0.749,-0.602,-15.014000000000001,,,,,,0.0,,,,,,0.0,-103.0,1.0,-104.0,,-102.0,-824.0,-87.0,3.687817782917155,-94.0,-86.0,-84.0,-1740.0
0.46630000000000005,0.010164152694642076,0.45,0.464,0.498,9.326,-0.10080000000000003,0.013452137376640189,-0.144,-0.098,-0.082,-2.0160000000000005,-0.7644,0.02205085032374037,-0.8,-0.77,-0.712,-15.287999999999998,,,,,,0.0,,,,,,0.0,,,,,,0.0,-84.8,0.7483314773547882,-86.0,-85.0,-84.0,-1696.0
0.46579999999999994,0.008022468448052615,0.45,0.464,0.478,9.315999999999999,-0.09980000000000003,0.006660330322138684,-0.112,-0.098,-0.082,-1.9960000000000004,-0.7678,0.007345747068882789,-0.782,-0.77,-0.756,-15.356000000000002,,,,,,0.0,,,,,,0.0,,,,,,0.0,-85.0,0.0,-85.0,-85.0,-85.0,-1700.0
0.4683,0.0055596762495670375,0.46,0.46799999999999997,0.48,9.366,-0.09730000000000003,0.005666568626602874,-0.104,-0.098,-0.082,-1.9460000000000004,-0.7732,0.008423775875461082,-0.784,-0.776,-0.754,-15.464,,,,,,0.0,,,,,,0.0,,,,,,0.0,-84.6,0.4898979485566356,-85.0,-85.0,-84.0,-1692.0
0.4712631578947368,0.007600845557278173,0.454,0.472,0.486,8.953999999999999,-0.09726315789473686,0.005279973138519769,-0.112,-0.098,-0.084,-1.8480000000000003,-0.7703157894736843,0.010224082157126812,-0.784,-0.772,-0.746,-14.636000000000001,,,,,,0.0,,,,,,0.0,,,,,,0.0,-85.15789473684211,0.36464227527765836,-86.0,-85.0,-85.0,-1618.0
0.5101,0.053180729592588336,0.462,0.486,0.658,10.202,-0.1472,0.1241215533257621,-0.448,-0.089,-0.03,-2.944,-0.7596999999999999,0.1322093415761534,-1.058,-0.776,-0.456,-15.193999999999999,-101.0,0.0,-101.0,,-101.0,-303.0,,,,,,0.0,-100.0,0.0,-100.0,,-100.0,-400.0,-88.82352941176471,6.214170657056121,-100.0,,-85.0,-1510.0
0.897875,0.204185539093737,0.384,0.89,1.232,14.366,0.307375,0.2836588785407571,-0.168,0.33699999999999997,0.742,4.918,0.15499999999999997,0.2908083561385401,-0.24,0.11199999999999999,0.6,2.4799999999999995,-98.875,2.8912583765550943,-102.0,,-96.0,-791.0,,,,,,0.0,-95.28571428571429,1.4846149779161806,-97.0,,-94.0,-667.0,-95.63636363636364,1.2984415324623364,-97.0,,-94.0,-1052.0
0.6246000000000002,0.11549216423636713,0.296,0.65,0.896,12.492000000000003,0.0735,0.1631280172134756,-0.144,0.032,0.448,1.47,0.7941999999999999,0.1759328280907233,0.338,0.827,1.08,15.883999999999999,-98.0,2.0,-102.0,,-97.0,-490.0,,,,,,0.0,-93.0,2.1483446221182985,-97.0,,-90.0,-1209.0,-84.9,3.0315012782448236,-96.0,-84.0,-82.0,-1698.0
0.5604,0.026710297639674464,0.48,0.563,0.606,11.208,0.1898,0.06851539972882009,0.078,0.178,0.384,3.796,0.8776999999999999,0.04264399137041467,0.806,0.876,1.026,17.554,,,,,,0.0,,,,,,0.0,-100.0,0.0,-100.0,,-100.0,-400.0,-82.35,0.47696960070847283,-83.0,-82.0,-82.0,-1647.0
0.5629000000000002,0.00811110350075743,0.544,0.562,0.576,11.258000000000003,0.1689,0.009538867857350785,0.146,0.172,0.184,3.3779999999999997,0.8689,0.008449260322655477,0.848,0.87,0.88,17.378,,,,,,0.0,,,,,,0.0,-95.36363636363636,0.4810456929208347,-96.0,,-95.0,-1049.0,-83.0,0.0,-83.0,-83.0,-83.0,-1660.0
0.5641,0.005271622141238838,0.552,0.566,0.574,11.282000000000002,0.1735,0.005792236183029828,0.16,0.174,0.188,3.4699999999999998,0.8767999999999999,0.008255906976220124,0.866,0.875,0.894,17.535999999999998,,,,,,0.0,,,,,,0.0,-99.92307692307692,1.4915938022819473,-101.0,,-95.0,-1299.0,-82.45,0.4974937185533099,-83.0,-82.0,-82.0,-1649.0
0.5580999999999999,0.022085968396246512,0.47,0.562,0.578,11.161999999999999,0.16570000000000001,0.017902793078176372,0.102,0.172,0.192,3.314,0.8753,0.025038170859709375,0.8,0.876,0.944,17.506,,,,,,0.0,,,,,,0.0,,,,,,0.0,-82.85,1.0136567466356647,-85.0,-83.0,-82.0,-1657.0
0.5549411764705883,0.34447444549431516,0.05,0.56,1.2,9.434000000000001,0.3463529411764706,0.26608378626830853,-0.026,0.248,0.806,5.888,0.7681176470588236,0.15295131188135777,0.496,0.766,0.974,13.058,,,,,,0.0,,,,,,0.0,-96.0,0.0,-96.0,,-96.0,-384.0,-91.82352941176471,6.705882352941177,-100.0,-89.0,-83.0,-1561.0
-0.3776,0.4376471638203543,-1.092,-0.32,0.338,-5.664,-0.19426666666666667,0.24980298014413058,-0.552,-0.226,0.318,-2.914,0.9145333333333332,0.3269075030579071,0.252,0.908,1.67,13.717999999999998,,,,,,0.0,,,,,,0.0,,,,,,0.0,-95.86666666666666,4.129030017920539,-102.0,-96.0,-90.0,-1438.0
-0.344,0.2859230665756088,-1.328,-0.294,0.108,-6.88,0.3102,0.18219648734264884,0.032,0.266,0.758,6.204,0.9698,0.4596533041325821,0.404,0.956,2.52,19.396,,,,,,0.0,,,,,,0.0,,,,,,0.0,-91.2,5.7758116312774614,-102.0,-88.0,-85.0,-1824.0
-0.2057,0.0393561939216688,-0.264,-0.208,-0.11,-4.114,0.33180000000000004,0.02095614468360056,0.286,0.332,0.37,6.636000000000001,0.9735999999999999,0.013865064009949623,0.958,0.972,1.01,19.471999999999998,,,,,,0.0,,,,,,0.0,-97.36363636363636,1.2984415324623362,-99.0,,-96.0,-1071.0,-85.6,0.4898979485566356,-86.0,-86.0,-85.0,-1712.0
-0.2113,0.00903935838431025,-0.232,-0.211,-0.194,-4.226,0.3164,0.011038115781237314,0.296,0.318,0.338,6.328,0.9795,0.010504760825454342,0.95,0.981,0.996,19.59,,,,,,0.0,,,,,,0.0,-95.66666666666667,0.6666666666666666,-97.0,,-95.0,-861.0,-85.6,0.4898979485566356,-86.0,-86.0,-85.0,-1712.0
-0.2092,0.005491812087098388,-0.218,-0.21,-0.196,-4.184,0.30479999999999996,0.010264501936285081,0.284,0.305,0.322,6.095999999999999,0.9857000000000001,0.00710703876449257,0.974,0.988,0.998,19.714000000000002,,,,,,0.0,,,,,,0.0,-98.5,1.5,-100.0,,-97.0,-788.0,-85.5,0.7416198487095663,-86.0,-86.0,-84.0,-1710.0
-0.4069,0.3724709250397942,-1.2,-0.305,0.13,-8.138,0.4665,0.1909092716449361,0.202,0.40800000000000003,0.904,9.33,0.7761000000000001,0.2936988083053794,0.268,0.903,1.164,15.522000000000002,,,,,,0.0,,,,,,0.0,,,,,,0.0,-87.4,3.6932370625238775,-91.0,-89.0,-80.0,-1748.0
-0.7906000000000001,0.14461687315109537,-1.102,-0.804,-0.514,-15.812000000000001,0.302,0.125892017221109,0.048,0.299,0.504,6.04,0.26020000000000004,0.1306076567433931,0.03,0.316,0.502,5.204000000000001,,,,,,0.0,,,,,,0.0,,,,,,0.0,-86.35,2.7977669667075564,-90.0,-87.0,-80.0,-1727.0
-0.8472999999999999,0.13235448613477369,-1.22,-0.848,-0.606,-16.945999999999998,0.3202,0.04447426221985025,0.192,0.337,0.36,6.404,0.35350000000000004,0.03442019755899144,0.29,0.352,0.43,7.07,,,,,,0.0,,,,,,0.0,,,,,,0.0,-87.35,1.4239030865898141,-89.0,-87.0,-85.0,-1747.0
-0.8442352941176471,0.097406081107281,-1.086,-0.84,-0.692,-14.352,0.31670588235294117,0.03658955927243269,0.254,0.31,0.384,5.3839999999999995,0.35611764705882354,0.03579333219690206,0.306,0.348,0.46,6.054,,,,,,0.0,,,,,,0.0,,,,,,0.0,-88.82352941176471,1.6885529522832146,-91.0,-88.0,-86.0,-1510.0
-0.847578947368421,0.02804942215273771,-0.896,-0.848,-0.776,-16.104,0.33063157894736844,0.015842017835044634,0.312,0.332,0.358,6.282,0.30515789473684213,0.034703652405830565,0.23,0.32,0.336,5.798000000000001,,,,,,0.0,,,,,,0.0,,,,,,0.0,-88.94736842105263,4.223663715313449,-97.0,-87.0,-86.0,-1690.0
-0.9048000000000002,0.16188687408187236,-1.14,-0.969,-0.64,-18.096000000000004,0.1706,0.05067583250426183,0.078,0.162,0.27,3.412,-0.003400000000000001,0.11305237724170156,-0.16,-0.048,0.206,-0.06800000000000002,,,,,,0.0,,,,,,0.0,-101.0,0.0,-101.0,,-101.0,-404.0,-85.95,5.722543140947038,-95.0,-85.0,-79.0,-1719.0
-0.9178000000000003,0.07204137699961043,-1.134,-0.893,-0.84,-18.356000000000005,0.2298,0.03561404217440081,0.166,0.225,0.322,4.596,-0.08370000000000001,0.019196614284815956,-0.114,-0.09,-0.032,-1.6740000000000002,,,,,,0.0,,,,,,0.0,,,,,,0.0,-80.8,2.6381811916545836,-86.0,-80.0,-79.0,-1616.0
-0.8893000000000001,0.016519987893458047,-0.924,-0.886,-0.866,-17.786,0.23279999999999998,0.01381882773609976,0.206,0.23299999999999998,0.264,4.656,-0.11200000000000002,0.021651789764358973,-0.16,-0.112,-0.08,-2.24,,,,,,0.0,,,,,,0.0,,,,,,0.0,-79.75,0.4330127018922193,-80.0,-80.0,-79.0,-1595.0
-0.9036000000000002,0.044862456464175034,-1.048,-0.892,-0.852,-18.072000000000003,0.24829999999999997,0.012153600289626122,0.222,0.248,0.278,4.965999999999999,-0.1315,0.03097014691602221,-0.226,-0.129,-0.094,-2.63,,,,,,0.0,,,,,,0.0,,,,,,0.0,-79.5,0.7416198487095663,-80.0,-80.0,-78.0,-1590.0
-0.8854000000000001,0.1242885352717619,-1.064,-0.879,-0.68,-17.708000000000002,0.2171,0.03804983574208961,0.146,0.211,0.286,4.342,-0.0891,0.11893607526734688,-0.238,-0.11699999999999999,0.134,-1.782,,,,,,0.0,,,,,,0.0,,,,,,0.0,-85.65,4.497499305169485,-93.0,-85.0,-78.0,-1713.0
-0.8562000000000001,0.04005945581257938,-0.962,-0.855,-0.79,-17.124000000000002,0.3167,0.026894423213744516,0.254,0.319,0.358,6.334,0.2715,0.038904369934494504,0.172,0.285,0.312,5.430000000000001,,,,,,0.0,,,,,,0.0,,,,,,0.0,-86.85,3.837642505497352,-94.0,-86.0,-83.0,-1737.0
-0.8544,0.009024411338142791,-0.87,-0.857,-0.838,-17.088,0.33259999999999995,0.010001999800039987,0.31,0.334,0.344,6.651999999999999,0.3075,0.015477402882912892,0.278,0.309,0.336,6.15,,,,,,0.0,,,,,,0.0,,,,,,0.0,-91.1,6.869497798238239,-98.0,-96.0,-83.0,-1822.0
-0.84475,0.022659159295966826,-0.872,-0.853,-0.794,-13.516,0.36,0.03561600763701625,0.304,0.348,0.434,5.76,0.30874999999999997,0.03015688147007247,0.24,0.311,0.358,4.9399999999999995,,,,,,0.0,,,,,,0.0,,,,,,0.0,-89.8125,6.237174340196048,-99.0,-88.0,-84.0,-1437.0
-0.8013999999999999,0.09240584397103897,-1.056,-0.812,-0.664,-16.028,0.3572000000000001,0.13721136979128223,0.16,0.376,0.834,7.144000000000001,0.1903,0.09540288255603183,0.032,0.186,0.45,3.806,,,,,,0.0,,,,,,0.0,,,,,,0.0,-90.95,5.563047725842373,-102.0,-90.0,-85.0,-1819.0
-0.8643000000000001,0.06122834311003362,-1.006,-0.833,-0.744,-17.286,0.4681,0.08776440052777662,0.184,0.46,0.688,9.362,0.2621000000000001,0.07121088399956849,0.172,0.264,0.38,5.242000000000002,,,,,,0.0,,,,,,0.0,,,,,,0.0,-99.2,1.9390719429665317,-102.0,-98.0,-97.0,-1984.0
-0.8262499999999999,0.006995534289816617,-0.84,-0.826,-0.814,-13.219999999999999,0.454375,0.01670656682265989,0.408,0.457,0.482,7.27,0.18012499999999998,0.010475417652771657,0.158,0.18,0.198,2.8819999999999997,,,,,,0.0,,,,,,0.0,,,,,,0.0,-95.3125,3.9956030521061523,-102.0,-93.0,-92.0,-1525.0
-0.822125,0.007192661190407893,-0.832,-0.821,-0.808,-13.154,0.452875,0.007904705876881196,0.438,0.454,0.464,7.246,0.1915,0.01578765340384694,0.166,0.195,0.222,3.064,,,,,,0.0,,,,,,0.0,,,,,,0.0,-93.0,0.0,-93.0,-93.0,-93.0,-1488.0
-0.8351,0.031397292876934484,-0.92,-0.825,-0.794,-16.701999999999998,0.4696999999999999,0.03972543265969549,0.422,0.456,0.562,9.393999999999998,0.192,0.029993332592427934,0.152,0.188,0.308,3.8400000000000003,,,,,,0.0,,,,,,0.0,,,,,,0.0,-95.45,3.427462618322773,-102.0,-94.0,-93.0,-1909.0
-0.846375,0.1255611778178271,-1.256,-0.84,-0.712,-13.542,0.30924999999999997,0.13692675961987855,0.096,0.287,0.704,4.9479999999999995,0.098875,0.10489511130171891,-0.09,0.097,0.324,1.582,-103.0,0.0,-103.0,,-103.0,-309.0,,,,,,0.0,,,,,,0.0,-88.8125,3.8114752721223315,-96.0,-86.5,-86.0,-1421.0
-0.8557,0.050826272733695506,-0.974,-0.863,-0.77,-17.114,0.33890000000000003,0.06366309763120233,0.24,0.338,0.462,6.7780000000000005,0.2661,0.06596809835064218,0.102,0.285,0.348,5.322,-103.0,0.0,-103.0,,-103.0,-103.0,,,,,,0.0,,,,,,0.0,-87.4,4.431703961232068,-93.0,-86.0,-82.0,-1748.0
-0.8533,0.018828435941415846,-0.888,-0.857,-0.808,-17.066,0.3135,0.033117216066571774,0.24,0.315,0.376,6.27,0.3414,0.014506550244630859,0.318,0.338,0.372,6.827999999999999,,,,,,0.0,,,,,,0.0,,,,,,0.0,-83.55,0.4974937185533099,-84.0,-84.0,-83.0,-1671.0
-0.8618,0.007560423268574325,-0.868,-0.864,-0.836,-17.236,0.3134,0.011368377192897862,0.294,0.314,0.336,6.268,0.32039999999999996,0.010762899237658977,0.3,0.322,0.338,6.4079999999999995,,,,,,0.0,,,,,,0.0,,,,,,0.0,-83.25,0.4330127018922193,-84.0,-83.0,-83.0,-1665.0
-0.8885000000000002,0.0654732769914566,-1.042,-0.866,-0.804,-17.770000000000003,0.34140000000000004,0.023452931586477623,0.308,0.34,0.39,6.828,0.16999999999999998,0.0823626128774458,0.03,0.184,0.304,3.4,,,,,,0.0,,,,,,0.0,,,,,,0.0,-83.85,1.6209565077447328,-86.0,-83.0,-82.0,-1677.0
-0.7473684210526317,0.22618488258067393,-1.114,-0.76,-0.106,-14.200000000000001,0.40084210526315794,0.32385592364472565,-0.114,0.408,0.816,7.616000000000001,0.3192631578947368,0.24420199622126096,-0.074,0.35,0.882,6.065999999999999,,,,,,0.0,,,,,,0.0,,,,,,0.0,-91.42105263157895,2.681629305864631,-95.0,-92.0,-86.0,-1737.0
-0.19,0.09210990877271373,-0.366,-0.21,-0.046,-3.23,0.38917647058823535,0.19024326077392648,0.072,0.368,0.742,6.6160000000000005,0.9387058823529412,0.09793381000384148,0.738,0.942,1.094,15.958,,,,,,0.0,,,,,,0.0,-103.0,0.0,-103.0,,-103.0,-412.0,-96.15384615384616,6.124932073044426,-105.0,,-90.0,-1250.0
-0.20915789473684213,0.012470019448322893,-0.242,-0.208,-0.192,-3.9740000000000006,0.39463157894736844,0.016066344444916978,0.368,0.39,0.434,7.498,0.9494736842105265,0.008964071097281567,0.924,0.952,0.962,18.040000000000003,,,,,,0.0,,,,,,0.0,,,,,,0.0,-95.89473684210526,3.1771343732182253,-102.0,-94.0,-94.0,-1822.0
-0.2145,0.005509083408335729,-0.224,-0.216,-0.2,-4.29,0.3847,0.010493331215586411,0.362,0.385,0.406,7.694,0.9546999999999999,0.004786439177509733,0.946,0.956,0.962,19.093999999999998,,,,,,0.0,,,,,,0.0,,,,,,0.0,-94.7,2.2605309110914633,-100.0,-94.0,-93.0,-1894.0
-0.3025999999999999,0.24285477141699316,-0.76,-0.211,0.224,-6.051999999999999,0.4105,0.16070205350274774,0.12,0.384,0.846,8.209999999999999,0.8484,0.14517107149842215,0.51,0.922,1.01,16.968,,,,,,0.0,,,,,,0.0,,,,,,0.0,-93.05,4.224630161327734,-100.0,-94.0,-87.0,-1861.0
-0.7751111111111112,0.3628873239402876,-1.34,-0.852,0.044,-6.976000000000001,0.21200000000000002,0.08133333333333334,0.064,0.21,0.342,1.9080000000000001,0.8157777777777777,0.2408216388292278,0.556,0.742,1.27,7.342,,,,,,0.0,,,,,,0.0,,,,,,0.0,-95.44444444444444,3.095197394929804,-99.0,-98.0,-92.0,-859.0
0.603263157894737,0.31585153776072894,-0.114,0.718,1.008,11.462000000000002,0.2993684210526316,0.25429949407535324,-0.08,0.318,0.718,5.688000000000001,0.6448421052631579,0.0901538236091922,0.412,0.656,0.808,12.252,-95.72727272727273,4.158035136737917,-101.0,,-91.0,-1053.0,,,,,,0.0,-93.63636363636364,3.3917742011232055,-98.0,,-90.0,-1030.0,-89.78947368421052,4.34776345853966,-95.0,-89.0,-84.0,-1706.0
0.6529,0.07227855836968526,0.498,0.65,0.8,13.058000000000002,0.010199999999999999,0.24403516140097517,-0.286,-0.113,0.39,0.204,0.7781,0.10429664424131775,0.624,0.777,1.104,15.562000000000001,-92.23076923076923,2.546606978037977,-96.0,,-90.0,-1199.0,,,,,,0.0,-94.85,2.006863224038948,-97.0,-96.0,-90.0,-1897.0,-81.25,1.4097872179871684,-86.0,-81.0,-80.0,-1625.0
0.5373749999999999,0.024461385385950652,0.48,0.545,0.568,8.597999999999999,0.17099999999999999,0.02839894364232585,0.078,0.179,0.202,2.7359999999999998,0.87325,0.030404563802166284,0.776,0.878,0.92,13.972,-101.0,0.0,-101.0,,-101.0,-707.0,,,,,,0.0,-93.875,1.1110243021644486,-97.0,-93.5,-93.0,-1502.0,-82.875,0.4841229182759271,-83.0,-83.0,-81.0,-1326.0
0.5348,0.006852736679604731,0.524,0.535,0.55,10.696000000000002,0.19060000000000002,0.010901376059929316,0.158,0.192,0.212,3.8120000000000003,0.8888000000000001,0.006968500556073744,0.872,0.89,0.902,17.776000000000003,-101.47058823529412,1.6130952000943632,-104.0,,-100.0,-1725.0,,,,,,0.0,-95.0,0.0,-95.0,-95.0,-95.0,-1900.0,-82.4,0.7999999999999999,-83.0,-83.0,-81.0,-1648.0
0.539,0.007252585745787505,0.518,0.538,0.552,10.780000000000001,0.18630000000000005,0.010644716999526103,0.158,0.184,0.206,3.726000000000001,0.8811000000000002,0.010401442207694095,0.852,0.88,0.896,17.622000000000003,-101.86666666666666,1.1469767022723503,-104.0,,-101.0,-1528.0,,,,,,0.0,-93.1,1.609347693943108,-95.0,-94.0,-90.0,-1862.0,-83.15,0.3570714214271425,-84.0,-83.0,-83.0,-1663.0
0.541,0.005310367218940707,0.53,0.54,0.55,10.82,0.1849,0.00947575854483429,0.168,0.184,0.21,3.6980000000000004,0.8836,0.007735631842325494,0.872,0.883,0.898,17.672,-102.4,0.8,-104.0,,-102.0,-512.0,,,,,,0.0,-93.6,0.7999999999999999,-95.0,-93.0,-93.0,-1872.0,-83.45,0.4974937185533099,-84.0,-83.0,-83.0,-1669.0
0.5370000000000001,0.0064961527075646916,0.526,0.535,0.552,10.740000000000002,0.1925,0.007742738533619741,0.178,0.192,0.21,3.85,0.8886000000000001,0.008248636250920519,0.876,0.89,0.91,17.772000000000002,-102.0,1.0,-103.0,,-101.0,-816.0,,,,,,0.0,-95.25,1.7853571071357126,-98.0,,-93.0,-1524.0,-84.6,2.244994432064365,-89.0,-84.0,-83.0,-1692.0
0.5730000000000001,0.1894492016346334,0.302,0.591,1.236,11.46,0.2367,0.2653935002972002,-0.464,0.214,0.728,4.734,0.4236000000000001,0.6829347260170624,-0.824,0.808,1.174,8.472000000000001,-94.33333333333333,4.784233364802441,-101.0,,-90.0,-1132.0,,,,,,0.0,-99.66666666666667,4.459696053419884,-105.0,,-93.0,-1196.0,-87.1,5.309425580983314,-96.0,-88.0,-81.0,-1742.0
0.5603,0.26552911328138773,0.304,0.495,1.616,11.206000000000001,0.006599999999999999,0.2018317120771659,-0.4,-0.017,0.426,0.13199999999999998,-0.7898000000000002,0.17785038656128918,-1.136,-0.823,-0.312,-15.796000000000003,-103.0,0.0,-103.0,,-103.0,-309.0,,,,,,0.0,-100.55555555555556,2.454524670486058,-105.0,,-98.0,-905.0,-96.45,3.9556921012636965,-102.0,-97.0,-89.0,-1929.0
0.5229000000000001,0.0220315682601126,0.478,0.53,0.55,10.458000000000002,0.20780000000000004,0.03165375175235947,0.12,0.216,0.24,4.156000000000001,-0.7081000000000001,0.022076911015810163,-0.776,-0.707,-0.67,-14.162,-103.0,0.0,-103.0,,-103.0,-103.0,,,,,,0.0,,,,,,0.0,-91.8,0.39999999999999997,-92.0,-92.0,-91.0,-1836.0
0.5364210526315789,0.005334256614450501,0.526,0.536,0.548,10.192,0.2202105263157895,0.00497973733579574,0.212,0.22,0.23,4.184,-0.7054736842105263,0.007450668787025855,-0.718,-0.706,-0.692,-13.403999999999998,,,,,,0.0,,,,,,0.0,,,,,,0.0,-91.78947368421052,0.4076824574955176,-92.0,-92.0,-91.0,-1744.0
0.5344,0.005571355310873652,0.518,0.536,0.544,10.688,0.22020000000000003,0.006569627082262743,0.206,0.22,0.232,4.404000000000001,-0.7028999999999999,0.009262289133902046,-0.722,-0.705,-0.68,-14.057999999999998,,,,,,0.0,,,,,,0.0,,,,,,0.0,-91.7,0.45825756949558394,-92.0,-92.0,-91.0,-1834.0
0.5342,0.007613146524269718,0.514,0.536,0.55,10.684,0.2233,0.0040632499307820084,0.216,0.224,0.236,4.466,-0.7027999999999999,0.008399999999999993,-0.718,-0.704,-0.68,-14.055999999999997,,,,,,0.0,,,,,,0.0,,,,,,0.0,-91.5,0.5,-92.0,-91.5,-91.0,-1830.0
0.5341999999999999,0.005400000000000005,0.52,0.536,0.544,10.683999999999997,0.22240000000000001,0.005200000000000005,0.208,0.224,0.23,4.448,-0.6993,0.006964912059746336,-0.712,-0.698,-0.686,-13.986,,,,,,0.0,,,,,,0.0,,,,,,0.0,-91.4,0.4898979485566356,-92.0,-91.0,-91.0,-1828.0
0.659375,0.13983869055093442,0.424,0.616,0.95,10.55,0.34862499999999996,0.29609687498350945,-0.068,0.3,1.032,5.577999999999999,-0.23437499999999997,0.45541311945858565,-0.88,-0.07100000000000001,0.366,-3.7499999999999996,-97.4,6.945502141674136,-104.0,,-89.0,-974.0,,,,,,0.0,-102.66666666666667,3.2998316455372216,-105.0,,-98.0,-616.0,-94.0,1.9148542155126762,-98.0,,-92.0,-1128.0
0.7985,0.20245085823478248,0.43,0.804,1.198,15.969999999999999,0.22659999999999997,0.35579943788600904,-0.208,0.071,1.106,4.531999999999999,0.2431,0.3771675887453746,-0.242,0.14700000000000002,1.02,4.862,-94.33333333333333,4.714045207910316,-101.0,,-91.0,-566.0,,,,,,0.0,-92.66666666666667,2.68741924943285,-98.0,,-90.0,-1112.0,-87.5,5.044799302251775,-98.0,-85.5,-81.0,-1750.0
0.5332000000000001,0.06835905207066581,0.374,0.533,0.674,10.664000000000001,0.11309999999999998,0.07988109914116104,-0.01,0.109,0.284,2.2619999999999996,0.9097999999999999,0.09397425179271181,0.71,0.896,1.238,18.195999999999998,,,,,,0.0,,,,,,0.0,-97.33333333333333,2.494438257849294,-100.0,,-92.0,-1168.0,-81.8,0.7483314773547882,-83.0,-82.0,-81.0,-1636.0
0.5218999999999999,0.009021640649017237,0.494,0.522,0.536,10.437999999999999,0.1072,0.013905394636614957,0.078,0.104,0.152,2.144,0.9123000000000003,0.015751507864328416,0.87,0.912,0.958,18.246000000000006,,,,,,0.0,,,,,,0.0,-100.25,2.0463381929681126,-103.0,,-96.0,-1604.0,-81.2,0.39999999999999997,-82.0,-81.0,-81.0,-1624.0
0.536,0.009838699100999083,0.504,0.54,0.55,10.72,0.10350000000000001,0.009118662182579196,0.088,0.102,0.12,2.0700000000000003,0.9030000000000001,0.007280109889280525,0.876,0.904,0.914,18.060000000000002,,,,,,0.0,,,,,,0.0,-98.125,2.4717149916606487,-101.0,,-95.0,-1570.0,-81.2,0.39999999999999997,-82.0,-81.0,-81.0,-1624.0
0.5239,0.006825686778632615,0.51,0.524,0.54,10.478000000000002,0.10959999999999999,0.0068000000000000005,0.096,0.11,0.122,2.1919999999999997,0.9118,0.008623224454924047,0.896,0.91,0.926,18.236,,,,,,0.0,,,,,,0.0,-98.83333333333333,2.7335365778094545,-101.0,,-95.0,-1186.0,-80.6,0.4898979485566356,-81.0,-81.0,-80.0,-1612.0
0.526,0.007668115805072332,0.51,0.528,0.536,10.520000000000001,0.10330000000000002,0.011158404903927801,0.078,0.103,0.12,2.0660000000000003,0.9044000000000001,0.010983624174196795,0.876,0.908,0.92,18.088,,,,,,0.0,,,,,,0.0,-96.66666666666667,2.357022603955158,-100.0,,-95.0,-580.0,-81.0,0.6324555320336759,-82.0,-81.0,-80.0,-1620.0
0.5907,0.22340749763604623,0.224,0.543,1.016,11.814,0.2617,0.23416940449170554,-0.084,0.207,0.642,5.234,0.8318,0.21509802416572776,0.448,0.859,1.196,16.636,-104.0,0.0,-104.0,,-104.0,-416.0,,,,,,0.0,-101.0,0.0,-101.0,,-101.0,-202.0,-85.5,4.224926034855522,-94.0,-84.5,-81.0,-1710.0
-0.005499999999999998,0.42594336477987305,-0.93,0.07,0.478,-0.08799999999999997,0.13025,0.22830995926590675,-0.226,0.19,0.528,2.084,0.8547499999999999,0.3169289155315431,0.216,0.882,1.424,13.675999999999998,,,,,,0.0,,,,,,0.0,-101.0,0.0,-101.0,,-101.0,-202.0,-97.5,3.24037034920393,-102.0,-97.5,-94.0,-1560.0
-0.489875,0.1839123007713187,-0.928,-0.499,-0.218,-7.838,0.27049999999999996,0.20191768124659118,-0.024,0.20800000000000002,0.592,4.327999999999999,0.8,0.2801499598429384,0.126,0.841,1.368,12.8,,,,,,0.0,,,,,,0.0,-97.0,0.0,-97.0,,-97.0,-194.0,-95.375,2.6427968139832467,-98.0,-96.0,-89.0,-1526.0
-0.21930000000000005,0.06413509179848424,-0.392,-0.215,-0.098,-4.386000000000001,0.3209000000000001,0.08539432065424492,0.152,0.33,0.496,6.418000000000001,0.9791000000000001,0.10343785573956953,0.774,0.975,1.248,19.582,-104.0,0.0,-104.0,,-104.0,-416.0,,,,,,0.0,-96.14285714285714,1.5518257844571735,-98.0,,-94.0,-1346.0,-89.1,0.5385164807134504,-90.0,-89.0,-88.0,-1782.0
-0.21200000000000005,0.006603029607687673,-0.226,-0.211,-0.2,-4.240000000000001,0.33319999999999994,0.00783326241102645,0.318,0.333,0.348,6.663999999999999,0.9747,0.007727224598780607,0.966,0.974,0.994,19.494,,,,,,0.0,,,,,,0.0,-98.85714285714286,2.58725289661069,-102.0,,-96.0,-1384.0,-89.9,2.981610303175114,-94.0,-88.0,-87.0,-1798.0
-0.21550000000000002,0.006837397165588674,-0.228,-0.216,-0.202,-4.3100000000000005,0.3197,0.009039358384310256,0.302,0.318,0.338,6.394,0.9747,0.010065286881157445,0.95,0.976,0.992,19.494,,,,,,0.0,,,,,,0.0,-96.5,1.118033988749895,-99.0,,-96.0,-1158.0,-87.6,0.4898979485566356,-88.0,-88.0,-87.0,-1752.0
-0.1893,0.12390363190802761,-0.386,-0.219,0.236,-3.786,0.3434,0.05092386473943234,0.284,0.325,0.466,6.867999999999999,0.9674999999999999,0.05330243896858755,0.838,0.978,1.054,19.349999999999998,,,,,,0.0,,,,,,0.0,-97.85714285714286,1.9587584572574412,-100.0,,-95.0,-1370.0,-89.3,2.8301943396169813,-94.0,-88.0,-86.0,-1786.0
-0.7269,0.2312656264990541,-1.192,-0.733,-0.22,-14.538,0.4429,0.16779210350907459,0.184,0.396,0.75,8.858,0.3696,0.3199216153997726,0.048,0.311,1.07,7.3919999999999995,-101.0,0.0,-101.0,,-101.0,-404.0,,,,,,0.0,,,,,,0.0,-87.7,2.0024984394500787,-90.0,-88.0,-83.0,-1754.0
-0.8401,0.059469235744206414,-0.954,-0.836,-0.68,-16.802,0.30929999999999996,0.04435436844325483,0.222,0.317,0.398,6.185999999999999,0.3508,0.05955971793082973,0.172,0.366,0.402,7.016,,,,,,0.0,,,,,,0.0,,,,,,0.0,-87.4,3.072458299147443,-93.0,-87.0,-83.0,-1748.0
-0.8591,0.11540792867043409,-1.278,-0.857,-0.654,-17.182,0.30460000000000004,0.029455729493597673,0.266,0.295,0.384,6.0920000000000005,0.3627,0.03079788953808361,0.32,0.352,0.43,7.2540000000000004,,,,,,0.0,,,,,,0.0,,,,,,0.0,-87.1,0.5385164807134504,-88.0,-87.0,-86.0,-1742.0
-0.8419000000000001,0.06062169578624472,-0.968,-0.851,-0.722,-16.838,0.2681,0.03462643498831493,0.206,0.271,0.35,5.362,0.38709999999999994,0.03650465723712525,0.334,0.388,0.462,7.741999999999999,,,,,,0.0,,,,,,0.0,,,,,,0.0,-89.8,2.181742422927143,-93.0,-90.0,-86.0,-1796.0
-0.8877,0.13242548848314664,-1.066,-0.88,-0.526,-17.754,0.34310000000000007,0.14929363683693958,0.124,0.321,0.582,6.862000000000001,0.2493,0.1003539236901079,0.118,0.23399999999999999,0.432,4.986,,,,,,0.0,,,,,,0.0,-101.0,0.0,-101.0,,-101.0,-404.0,-86.9,3.0149626863362666,-91.0,-87.0,-83.0,-1738.0
-0.9632,0.20678239770347956,-1.384,-0.906,-0.666,-19.264,0.3524999999999999,0.13314634805356096,0.11,0.363,0.614,7.049999999999999,0.1355,0.18609876410121587,-0.068,0.053,0.492,2.71,,,,,,0.0,,,,,,0.0,,,,,,0.0,-83.6,4.054626986542659,-88.0,-83.0,-77.0,-1672.0
-0.8540000000000001,0.18390106035583378,-1.354,-0.8280000000000001,-0.602,-17.080000000000002,0.20559999999999995,0.2216994361742943,-0.152,0.20700000000000002,0.616,4.111999999999999,-0.3132,0.2770598491301112,-0.68,-0.385,0.318,-6.263999999999999,,,,,,0.0,,,,,,0.0,-102.0,0.0,-102.0,,-102.0,-408.0,-82.4,4.715930449020639,-89.0,-80.0,-77.0,-1648.0
-0.8458749999999999,0.2973772593440864,-1.096,-0.9410000000000001,-0.046,-13.533999999999999,0.46062500000000006,0.38607882533881605,-0.24,0.5369999999999999,1.036,7.370000000000001,0.09912500000000002,0.3622926777827562,-0.472,0.087,0.992,1.5860000000000003,-98.0,0.0,-98.0,,-98.0,-392.0,,,,,,0.0,-97.4,3.3226495451672298,-100.0,,-91.0,-974.0,-82.75,7.013380069552769,-101.0,-81.0,-77.0,-1324.0
0.1581,0.17250678247535658,-0.078,0.10600000000000001,0.416,3.162,-0.33039999999999997,0.15715673704935465,-0.57,-0.393,-0.046,-6.608,0.8617000000000001,0.15112150740381064,0.384,0.937,0.998,17.234,-99.0,0.0,-99.0,,-99.0,-396.0,,,,,,0.0,-94.83333333333333,4.058598553961973,-100.0,,-91.0,-1138.0,-96.1,2.6248809496813372,-101.0,-96.0,-93.0,-1922.0
-0.4706,0.28093921050647236,-0.846,-0.46099999999999997,0.262,-9.412,0.4952,0.22787838861989523,-0.228,0.55,0.774,9.904,0.7511,0.3213182067670614,0.322,0.66,1.342,15.022,-92.33333333333333,0.4714045207910317,-93.0,,-92.0,-554.0,,,,,,0.0,-86.2,4.118252056394801,-96.0,-85.0,-80.0,-1724.0,-92.2,6.11228271597445,-101.0,-93.0,-84.0,-1844.0
-0.7845,0.08035141566892273,-1.01,-0.78,-0.618,-15.69,0.3741,0.07452375460214011,0.21,0.369,0.504,7.482,0.45549999999999996,0.07487289229086853,0.318,0.46,0.656,9.11,-94.6,3.7735924528226414,-99.0,-93.0,-89.0,-1892.0,,,,,,0.0,-82.8,3.57211421989835,-88.0,-82.5,-78.0,-1656.0,-90.75,4.630064794363034,-96.0,,-84.0,-1452.0
-0.8346,0.1305451645983106,-1.114,-0.8,-0.584,-16.692,0.40280000000000005,0.09590912365359198,0.23,0.402,0.608,8.056000000000001,0.2817,0.05531102964147386,0.184,0.28200000000000003,0.37,5.634,-78.8,6.046486583132391,-89.0,-76.0,-72.0,-1576.0,,,,,,0.0,-84.0,2.0976176963403033,-87.0,-83.0,-82.0,-1680.0,-96.22222222222223,4.893936787898943,-102.0,,-90.0,-1732.0
-0.9156000000000001,0.11932577257239946,-1.262,-0.887,-0.782,-18.312,0.2752,0.0798608790334792,0.108,0.276,0.43,5.504,0.19419999999999998,0.17452782013192053,-0.104,0.16099999999999998,0.472,3.884,-88.5,7.965550828411052,-102.0,-89.0,-77.0,-1770.0,,,,,,0.0,-92.8,4.728636167014756,-100.0,-92.0,-86.0,-1856.0,-96.22222222222223,3.2584173996922625,-101.0,,-92.0,-1732.0
-0.8765000000000003,0.0666059306668708,-1.042,-0.872,-0.776,-17.530000000000005,0.32450000000000007,0.09217130790001844,0.128,0.365,0.444,6.490000000000001,0.27620000000000006,0.07970420315140225,0.104,0.28,0.422,5.524000000000001,-78.4,2.4166091947189146,-84.0,-78.0,-76.0,-1568.0,,,,,,0.0,-84.8,4.791659420284375,-91.0,-85.0,-76.0,-1696.0,-90.9,2.662705391138869,-94.0,-91.5,-85.0,-1818.0
-0.5108,0.39177207659556346,-1.054,-0.529,0.118,-10.216000000000001,0.6225999999999999,0.353824306683416,0.184,0.5429999999999999,1.248,12.451999999999998,0.45640000000000003,0.1785111761207124,0.188,0.486,0.704,9.128,-75.5,2.4186773244895647,-78.0,-76.0,-71.0,-1510.0,,,,,,0.0,-70.1,3.2388269481403293,-76.0,-70.0,-65.0,-1402.0,-80.7,7.014983962918233,-93.0,-78.0,-74.0,-1614.0
0.6772,0.17766305187066894,0.304,0.6559999999999999,1.0,13.544,0.2347,0.12510839300382687,0.062,0.22999999999999998,0.582,4.694,0.6202,0.12070277544447766,0.316,0.647,0.816,12.404,-69.6,2.154065922853802,-75.0,-69.0,-67.0,-1392.0,,,,,,0.0,-70.8,2.85657137141714,-75.0,-70.5,-67.0,-1416.0,-83.8,1.4696938456699067,-86.0,-83.0,-82.0,-1676.0
-0.31900000000000006,0.509259658720382,-0.976,-0.375,0.558,-6.380000000000001,0.606,0.2739576609624195,-0.004,0.707,0.932,12.12,0.6235999999999999,0.09843698491928733,0.466,0.622,0.804,12.472,-68.9,1.1357816691600546,-71.0,-69.0,-66.0,-1378.0,,,,,,0.0,-74.8,4.093897898091744,-80.0,-77.0,-69.0,-1496.0,-92.375,5.194648688795037,-99.0,,-82.0,-1478.0
-0.39039999999999997,0.13985077761671544,-0.69,-0.37,-0.194,-7.808,0.7699999999999999,0.16630213468263116,0.45,0.813,0.998,15.399999999999999,0.2594,0.16493647261900565,0.02,0.248,0.596,5.188000000000001,-72.5,3.905124837953327,-77.0,-74.5,-66.0,-1450.0,,,,,,0.0,-80.2,4.686149805543993,-85.0,-82.0,-71.0,-1604.0,-90.7,2.0024984394500787,-93.0,-90.0,-88.0,-1814.0
-0.27220000000000005,0.18313699790047885,-0.81,-0.226,-0.064,-5.444000000000001,0.7743,0.30926769957433314,0.328,0.75,1.464,15.485999999999999,0.38809999999999995,0.20427968572523308,0.12,0.406,0.856,7.761999999999999,-68.8,6.177378084592201,-78.0,-67.0,-61.0,-1376.0,,,,,,0.0,-87.22222222222223,5.769224438109853,-96.0,,-80.0,-1570.0,-86.0,2.1908902300206643,-90.0,,-84.0,-860.0
-0.6487999999999999,0.44809391872686694,-1.69,-0.629,-0.036,-12.975999999999999,0.7111999999999999,0.23623158129259514,0.422,0.616,1.198,14.223999999999998,0.5456000000000001,0.14227803765866326,0.352,0.549,0.832,10.912,-64.8,4.093897898091744,-70.0,-64.0,-59.0,-1296.0,,,,,,0.0,-101.0,0.0,-101.0,,-101.0,-808.0,-97.0,5.707138387268051,-105.0,,-90.0,-1358.0
-0.9133000000000001,0.36751994503700064,-1.732,-0.944,-0.378,-18.266000000000002,0.3574,0.16643689494820554,-0.08,0.393,0.582,7.148,0.3195,0.15024629779132664,0.082,0.32799999999999996,0.6,6.39,-64.2,4.166533331199931,-69.0,-65.5,-58.0,-1284.0,,,,,,0.0,-91.0,0.0,-91.0,,-91.0,-364.0,-96.6,1.3564659966250536,-98.0,,-95.0,-966.0
-0.6029999999999999,0.2577770354395441,-1.162,-0.631,-0.252,-12.059999999999997,0.5609999999999999,0.3253376707361138,0.07,0.499,1.132,11.219999999999999,0.4471,0.22304481612447305,0.056,0.558,0.816,8.942,-66.7,2.7586228448267445,-70.0,-67.5,-63.0,-1334.0,,,,,,0.0,,,,,,0.0,-99.88888888888889,3.1778554769055765,-102.0,,-94.0,-1798.0
-0.15839999999999999,0.2970350821031078,-0.608,-0.241,0.448,-3.1679999999999997,0.7686,0.22703752993723306,0.386,0.766,1.238,15.371999999999998,0.5224,0.14443766821712403,0.232,0.528,0.848,10.447999999999999,-70.4,2.1071307505705477,-74.0,-70.0,-68.0,-1408.0,,,,,,0.0,,,,,,0.0,-101.0,0.0,-101.0,,-101.0,-202.0
0.1753,0.15524983091778233,-0.018,0.14100000000000001,0.472,3.5060000000000002,0.8634000000000001,0.08884841022775815,0.67,0.868,0.994,17.268,0.4034999999999999,0.09143932414448393,0.206,0.42300000000000004,0.54,8.069999999999999,-72.5,1.9621416870348585,-75.0,-73.0,-70.0,-1450.0,,,,,,0.0,,,,,,0.0,,,,,,0.0
-0.0149,0.07062145566327559,-0.176,0.002,0.092,-0.298,0.9129999999999999,0.13352527850560733,0.654,0.925,1.132,18.259999999999998,0.3153,0.1792889009392383,-0.052,0.33899999999999997,0.646,6.306,-72.0,1.61245154965971,-75.0,-71.0,-71.0,-1440.0,,,,,,0.0,,,,,,0.0,,,,,,0.0
-0.1775,0.0522565785332335,-0.236,-0.187,-0.01,-2.84,0.9568749999999999,0.041382174604532314,0.896,0.954,1.04,15.309999999999999,0.1015,0.05089449872039217,0.024,0.08299999999999999,0.198,1.624,-70.75,1.7853571071357126,-73.0,-70.0,-69.0,-1132.0,,,,,,0.0,,,,,,0.0,,,,,,0.0
-0.1809,0.011479982578383991,-0.208,-0.178,-0.162,-3.618,0.9377000000000001,0.011836807001890298,0.91,0.935,0.96,18.754,0.06460000000000002,0.01355138369318794,0.034,0.062,0.096,1.2920000000000003,-69.2,0.39999999999999997,-70.0,-69.0,-69.0,-1384.0,,,,,,0.0,,,,,,0.0,,,,,,0.0
-0.16519999999999999,0.008084553172563095,-0.188,-0.163,-0.152,-3.304,0.9452999999999998,0.017335224255832383,0.896,0.944,0.988,18.905999999999995,0.06510000000000002,0.012497599769555752,0.046,0.06,0.096,1.3020000000000003,-69.0,0.0,-69.0,-69.0,-69.0,-1380.0,,,,,,0.0,,,,,,0.0,,,,,,0.0
-0.15460000000000002,0.008924124606929245,-0.174,-0.155,-0.138,-3.0920000000000005,0.9391999999999999,0.019103926298015262,0.886,0.941,0.962,18.784,0.06990000000000002,0.009949371839468058,0.048,0.07,0.1,1.3980000000000004,-69.0,0.0,-69.0,-69.0,-69.0,-1380.0,,,,,,0.0,,,,,,0.0,,,,,,0.0
-0.12210000000000001,0.09479340694373212,-0.232,-0.185,0.038,-2.442,0.9492,0.053499158871892556,0.836,0.9390000000000001,1.08,18.984,0.14850000000000002,0.11203370028701186,0.006,0.093,0.368,2.97,-71.2,1.7776388834631176,-74.0,-71.0,-69.0,-1424.0,,,,,,0.0,,,,,,0.0,,,,,,0.0
0.22610000000000002,0.13739501446559116,0.046,0.203,0.462,4.522,0.8721000000000002,0.11017889997635662,0.664,0.913,1.032,17.442000000000004,0.2784,0.05423504402137054,0.152,0.276,0.384,5.568,-71.6,1.9595917942265426,-75.0,-71.0,-69.0,-1432.0,,,,,,0.0,,,,,,0.0,,,,,,0.0
0.043,0.13584918107960753,-0.314,0.088,0.176,0.86,0.8464,0.15845453606634302,0.55,0.868,1.184,16.928,0.41690000000000005,0.15482438438437274,0.014,0.424,0.702,8.338000000000001,-70.7,1.345362404707371,-74.0,-71.0,-69.0,-1414.0,,,,,,0.0,,,,,,0.0,,,,,,0.0
-0.35029999999999994,0.24745041927626635,-0.978,-0.304,0.006,-7.005999999999999,0.8571000000000002,0.3245134665926824,0.216,0.876,1.454,17.142000000000003,0.16510000000000002,0.38245808920717056,-0.288,0.016,0.984,3.3020000000000005,-73.0,2.5298221281347035,-76.0,-74.0,-69.0,-1460.0,,,,,,0.0,,,,,,0.0,,,,,,0.0
-0.8099999999999999,0.30287951399855356,-1.8,-0.6970000000000001,-0.53,-16.2,0.6159,0.25720612356629463,0.15,0.61,1.04,12.318,0.26169999999999993,0.34875221863093575,-0.712,0.34299999999999997,0.632,5.233999999999999,-63.0,4.404543109109048,-70.0,-61.5,-59.0,-1260.0,,,,,,0.0,-99.0,0.0,-99.0,,-99.0,-198.0,,,,,,0.0
-0.6942222222222223,0.257344463393923,-1.186,-0.721,-0.314,-12.496,0.3235555555555555,0.08334548059614552,0.194,0.311,0.508,5.823999999999999,0.6884444444444444,0.18856364154730426,0.304,0.715,1.152,12.392,-59.888888888888886,2.401131420552701,-65.0,-59.0,-57.0,-1078.0,,,,,,0.0,-99.0,1.7888543819998317,-101.0,,-97.0,-990.0,,,,,,0.0
-0.3397,0.3283438898472149,-0.73,-0.445,0.446,-6.794,0.31579999999999997,0.250246198772329,-0.184,0.319,0.952,6.316,0.7529,0.23460475272253117,0.112,0.826,1.07,15.058,-66.5,2.179449471770337,-69.0,-66.0,-63.0,-1330.0,,,,,,0.0,,,,,,0.0,,,,,,0.0
-0.6495,0.3515695521514911,-1.112,-0.7170000000000001,0.146,-12.99,0.7882999999999999,0.37086885822349663,-0.016,0.732,1.812,15.765999999999998,0.17350000000000004,0.25672154175292733,-0.152,0.096,0.894,3.4700000000000006,-71.8,3.944616584663204,-75.0,-73.0,-63.0,-1436.0,,,,,,0.0,-95.0,0.0,-95.0,,-95.0,-380.0,,,,,,0.0
-0.5811000000000001,0.11614211122585986,-0.762,-0.612,-0.384,-11.622000000000002,0.7592,0.1473816813583018,0.524,0.748,1.072,15.184,-0.10939999999999997,0.14330959493348655,-0.408,-0.099,0.19,-2.1879999999999993,-69.4,4.565084884205332,-75.0,-68.0,-63.0,-1388.0,,,,,,0.0,-95.0,0.0,-95.0,,-95.0,-380.0,-101.0,0.0,-101.0,,-101.0,-404.0
-0.6271,0.0599882488492538,-0.72,-0.618,-0.482,-12.542,0.7584,0.07089598013992049,0.59,0.783,0.85,15.168,-0.028499999999999998,0.08806560054868189,-0.162,-0.035,0.13,-0.57,-67.3,2.9171904291629644,-71.0,-68.0,-61.0,-1346.0,,,,,,0.0,,,,,,0.0,-101.5,0.5,-102.0,,-101.0,-812.0
-0.34259999999999996,0.09592100916900322,-0.498,-0.345,-0.226,-6.851999999999999,0.7954,0.051217575108550385,0.696,0.8109999999999999,0.856,15.908,0.3343,0.07959968592902865,0.096,0.348,0.456,6.686,-61.75,1.7571283390805579,-64.0,-62.0,-59.0,-1235.0,,,,,,0.0,-98.5,2.5,-101.0,,-96.0,-788.0,-98.0,0.0,-98.0,,-98.0,-98.0
-0.4258,0.0696818484255405,-0.538,-0.444,-0.286,-8.516,0.8175000000000001,0.07245929892015242,0.71,0.8,1.038,16.35,0.38339999999999996,0.06090353027534611,0.288,0.366,0.52,7.667999999999999,-65.95,3.3834154341434335,-70.0,-67.0,-60.0,-1319.0,,,,,,0.0,,,,,,0.0,-95.75,3.897114317029974,-98.0,,-89.0,-383.0
-0.0071,0.12621327188532908,-0.218,-0.033,0.268,-0.14200000000000002,0.9194000000000001,0.10669601679537996,0.732,0.92,1.176,18.388,0.4035,0.085047927664347,0.22,0.424,0.518,8.07,-70.85,3.1348843678834473,-75.0,-70.0,-67.0,-1417.0,,,,,,0.0,,,,,,0.0,-97.72727272727273,5.411954933140806,-102.0,,-89.0,-1075.0
-0.10289999999999999,0.12169548060630682,-0.308,-0.11599999999999999,0.112,-2.058,0.8827999999999999,0.11953978417246705,0.654,0.881,1.054,17.656,-0.09110000000000001,0.22324558226312116,-0.372,-0.137,0.248,-1.8220000000000003,-71.8,2.6,-75.0,-72.0,-68.0,-1436.0,,,,,,0.0,,,,,,0.0,,,,,,0.0
-0.15550000000000003,0.06801433672395843,-0.286,-0.14100000000000001,-0.018,-3.1100000000000003,0.9538,0.11386816938899125,0.806,0.9279999999999999,1.26,19.076,0.0305,0.2695751286747351,-0.368,0.028,0.46,0.61,-72.3,1.382027496108525,-74.0,-72.0,-70.0,-1446.0,,,,,,0.0,,,,,,0.0,,,,,,0.0
-0.04849999999999998,0.35775683082227794,-0.594,-0.22999999999999998,0.774,-0.9699999999999996,0.7897000000000001,0.4013523514320054,-0.174,0.796,1.422,15.794,0.4514,0.24981120871570195,0.094,0.498,0.956,9.028,-72.95,2.1788758569500923,-76.0,-74.0,-70.0,-1459.0,,,,,,0.0,,,,,,0.0,-105.0,0.0,-105.0,,-105.0,-420.0
0.454,0.16025604512778918,0.05,0.41400000000000003,0.876,9.08,0.5413,0.3299922877886694,-0.28,0.646,0.966,10.826,0.6609,0.24630426305689476,0.322,0.612,1.352,13.218,-71.95,2.7834331319433563,-76.0,-72.0,-69.0,-1439.0,,,,,,0.0,,,,,,0.0,,,,,,0.0
-0.3407,0.19094530630523496,-0.76,-0.307,0.04,-6.814,0.08159999999999999,0.30725207891892287,-0.516,0.03,0.734,1.632,1.011,0.13827436494158993,0.764,1.029,1.256,20.22,-72.5,3.598610843089316,-78.0,-70.0,-69.0,-1450.0,,,,,,0.0,,,,,,0.0,,,,,,0.0
-0.03230000000000001,0.31731326792304165,-0.53,0.059,0.38,-0.6460000000000001,0.17640000000000003,0.2723333251733985,-0.392,0.22799999999999998,0.56,3.5280000000000005,0.8709000000000001,0.1833177296390068,0.44,0.937,1.144,17.418000000000003,-72.6,2.5377155080899043,-76.0,-74.0,-69.0,-1452.0,,,,,,0.0,,,,,,0.0,,,,,,0.0
0.08860000000000003,0.10975080865305732,-0.248,0.10400000000000001,0.322,1.7720000000000005,0.683,0.24671238315090713,0.14,0.747,1.068,13.66,0.858,0.15735564813504468,0.654,0.82,1.184,17.16,-69.75,0.9937303457175896,-71.0,-70.0,-68.0,-1395.0,,,,,,0.0,,,,,,0.0,,,,,,0.0
0.0014999999999999957,0.2480055442928646,-0.498,0.002,0.43,0.029999999999999916,0.19380000000000003,0.3708028586729072,-0.528,0.131,1.192,3.8760000000000003,0.8964000000000002,0.2610054405563225,0.448,0.912,1.364,17.928000000000004,-69.8,0.7483314773547882,-71.0,-70.0,-69.0,-1396.0,,,,,,0.0,,,,,,0.0,-97.0,0.0,-97.0,,-97.0,-388.0
-0.20590000000000003,0.08732576939254529,-0.378,-0.201,-0.036,-4.118,0.9593,0.20568449139397943,0.716,0.912,1.71,19.186,0.0337,0.13381670299331097,-0.176,0.005999999999999998,0.268,0.674,-67.95,0.5894913061275798,-69.0,-68.0,-67.0,-1359.0,,,,,,0.0,,,,,,0.0,,,,,,0.0
0.0324,0.28735246649367746,-0.434,0.152,0.4,0.648,0.7938000000000001,0.26403704285573265,0.098,0.8180000000000001,1.206,15.876000000000001,0.35960000000000003,0.4467418046254458,-0.228,0.429,1.198,7.192,-71.05,1.883480820183736,-73.0,-72.0,-68.0,-1421.0,,,,,,0.0,,,,,,0.0,-105.0,0.0,-105.0,,-105.0,-420.0
0.18029999999999996,0.23890523225747903,-0.196,0.189,0.688,3.6059999999999994,0.42869999999999997,0.38024795857440186,-0.466,0.46699999999999997,1.474,8.574,0.7550000000000001,0.3375028888765251,0.07,0.896,1.35,15.100000000000001,-72.6,2.0099751242241783,-76.0,-73.0,-69.0,-1452.0,,,,,,0.0,,,,,,0.0,-102.0,0.0,-102.0,,-102.0,-408.0
0.0758,0.3159005539722905,-0.24,-0.020999999999999998,0.91,1.516,0.9141999999999999,0.44520417787797095,0.16,0.9079999999999999,1.92,18.284,0.06380000000000004,0.5895740496324444,-0.846,0.11800000000000001,1.008,1.2760000000000007,-72.4,2.4979991993593593,-75.0,-73.0,-69.0,-1448.0,,,,,,0.0,,,,,,0.0,,,,,,0.0
0.3505,0.19882844363923385,0.124,0.316,1.058,7.01,0.5573,0.3407381839477343,-0.42,0.635,0.972,11.146,-0.152,0.6569170419466981,-0.818,-0.497,1.126,-3.04,-71.8,2.08806130178211,-75.0,-71.0,-69.0,-1436.0,,,,,,0.0,,,,,,0.0,,,,,,0.0
0.20459999999999995,0.1840587949542211,-0.2,0.243,0.51,4.091999999999999,0.7243999999999999,0.3789277503693811,0.184,0.598,1.798,14.488,-0.5895000000000001,0.19345477507676054,-1.106,-0.61,-0.16,-11.790000000000003,-74.85,1.7965244223221681,-78.0,-75.0,-73.0,-1497.0,,,,,,0.0,,,,,,0.0,,,,,,0.0
0.3071,0.44655144160555565,-0.948,0.319,1.126,6.1419999999999995,0.633,0.5940974667510374,-0.2,0.573,2.246,12.66,-0.12310000000000001,0.6144110920222714,-1.428,-0.144,0.902,-2.462,-73.35,3.1666228067138023,-78.0,-74.0,-69.0,-1467.0,,,,,,0.0,,,,,,0.0,,,,,,0.0
0.2391,0.09913319323011843,0.03,0.235,0.434,4.782,0.7590000000000001,0.24959046456144915,0.158,0.854,1.11,15.180000000000003,-0.3314,0.33953621309073945,-0.83,-0.46199999999999997,0.3,-6.627999999999999,-74.3,1.8193405398660252,-79.0,-73.0,-73.0,-1486.0,,,,,,0.0,,,,,,0.0,,,,,,0.0
-0.1293,0.14713568567822016,-0.32,-0.16999999999999998,0.158,-2.586,0.8736,0.12096875629682237,0.656,0.863,1.1,17.472,0.4426,0.11272462020339657,0.112,0.456,0.598,8.852,-73.65,2.4550967394381837,-79.0,-73.0,-71.0,-1473.0,,,,,,0.0,,,,,,0.0,,,,,,0.0
-0.2353,0.1881279086153886,-0.49,-0.28900000000000003,0.12,-4.706,0.8139000000000001,0.11846767491598711,0.588,0.83,1.04,16.278000000000002,0.5160000000000001,0.07882892870006543,0.39,0.512,0.646,10.320000000000002,-74.1,2.233830790368868,-78.0,-73.0,-72.0,-1482.0,,,,,,0.0,,,,,,0.0,,,,,,0.0
-0.32589999999999997,0.1161679387783049,-0.588,-0.306,-0.178,-6.518,0.6938000000000001,0.061181369713336736,0.584,0.678,0.828,13.876000000000001,0.6759999999999999,0.054753995288015285,0.572,0.678,0.792,13.52,-71.95,1.2031209415515967,-74.0,-71.0,-71.0,-1439.0,,,,,,0.0,,,,,,0.0,,,,,,0.0
-0.2876,0.022641554716935845,-0.322,-0.289,-0.25,-5.752000000000001,0.6582,0.0487274050201732,0.574,0.653,0.76,13.164,0.7443,0.03852933947007139,0.652,0.744,0.816,14.886,-74.15,2.0316249653910043,-78.0,-73.0,-73.0,-1483.0,,,,,,0.0,,,,,,0.0,,,,,,0.0
-0.2876,0.061150960744701305,-0.464,-0.281,-0.186,-5.752000000000001,0.6505,0.044734215093147685,0.566,0.654,0.75,13.01,0.7354999999999999,0.06190274630418265,0.52,0.732,0.824,14.709999999999999,-77.95,2.5782746168707473,-81.0,-77.0,-75.0,-1559.0,,,,,,0.0,,,,,,0.0,,,,,,0.0
-0.24920000000000003,0.20216864247454402,-0.616,-0.23,0.162,-4.984000000000001,0.7231,0.12476293520112454,0.432,0.715,0.994,14.462,0.672,0.09234500527911621,0.486,0.6779999999999999,0.886,13.440000000000001,-73.35,1.4585952145814822,-75.0,-73.0,-71.0,-1467.0,,,,,,0.0,,,,,,0.0,,,,,,0.0
0.07629999999999999,0.08392204716282843,-0.174,0.067,0.236,1.5259999999999998,0.6851,0.08864417634565736,0.55,0.699,0.848,13.702,0.7231,0.06809251060138699,0.546,0.743,0.846,14.462,-72.2,2.315167380558045,-74.0,-73.0,-66.0,-1444.0,,,,,,0.0,,,,,,0.0,,,,,,0.0
-0.05670000000000001,0.3523613344281691,-0.82,0.121,0.272,-1.1340000000000001,0.48299999999999993,0.3443797322723856,-0.124,0.47,0.992,9.659999999999998,0.7712999999999999,0.12712242131111254,0.556,0.753,1.062,15.425999999999998,-66.7,1.6462077633154326,-69.0,-67.0,-64.0,-1334.0,,,,,,0.0,,,,,,0.0,,,,,,0.0
-0.16690000000000002,0.7049327556582967,-1.43,-0.010000000000000002,1.164,-3.3380000000000005,0.361,0.3729774792128876,-0.324,0.259,1.126,7.22,0.6882000000000001,0.5654749861841812,-0.16,0.751,1.976,13.764000000000003,-68.65,1.7399712641305316,-71.0,-68.0,-66.0,-1373.0,,,,,,0.0,,,,,,0.0,,,,,,0.0
-0.0147,0.11022935180794632,-0.288,-0.009000000000000001,0.182,-0.294,1.0031999999999999,0.09653268876396222,0.848,0.999,1.212,20.063999999999997,0.27999999999999997,0.1178541471480745,0.02,0.29000000000000004,0.44,5.6,-72.1,1.5459624833740306,-74.0,-72.0,-69.0,-1442.0,,,,,,0.0,,,,,,0.0,,,,,,0.0
0.0625,0.1244746962237707,-0.226,0.03,0.274,1.25,0.7071000000000001,0.24986354275884268,0.178,0.823,0.988,14.142000000000001,0.6217,0.1913115521864793,0.408,0.544,1.176,12.434000000000001,-73.95,2.67348087705897,-78.0,-74.0,-71.0,-1479.0,,,,,,0.0,,,,,,0.0,,,,,,0.0
-0.08499999999999999,0.07803460770709365,-0.242,-0.08,0.102,-1.7,0.7019,0.1409290246897352,0.452,0.713,0.984,14.037999999999998,0.7919,0.20190242692944532,0.384,0.791,1.244,15.838000000000001,-79.25,1.5124483462254175,-81.0,-80.0,-75.0,-1585.0,,,,,,0.0,,,,,,0.0,,,,,,0.0
-0.34329999999999994,0.3604348900980592,-0.88,-0.386,0.376,-6.865999999999999,0.27090000000000003,0.3957400535705225,-0.27,0.088,1.022,5.418000000000001,0.8167,0.19537069892898473,0.44,0.831,1.232,16.334,-72.95,2.616772821625905,-77.0,-73.0,-70.0,-1459.0,,,,,,0.0,,,,,,0.0,,,,,,0.0
-0.6429,0.20683082458859944,-1.002,-0.67,-0.068,-12.858,0.10190000000000002,0.21318862540013714,-0.28,0.12,0.458,2.0380000000000003,0.7626999999999999,0.11629148722069042,0.472,0.772,0.926,15.254,-69.35,1.1079259903080168,-73.0,-69.0,-68.0,-1387.0,,,,,,0.0,,,,,,0.0,,,,,,0.0
