acceleration_x_mean,acceleration_x_std,acceleration_x_min,acceleration_x_median,acceleration_x_max,acceleration_x_sum,acceleration_y_mean,acceleration_y_std,acceleration_y_min,acceleration_y_median,acceleration_y_max,acceleration_y_sum,acceleration_z_mean,acceleration_z_std,acceleration_z_min,acceleration_z_median,acceleration_z_max,acceleration_z_sum,rssi_Kitchen_AP_mean,rssi_Kitchen_AP_std,rssi_Kitchen_AP_min,rssi_Kitchen_AP_median,rssi_Kitchen_AP_max,rssi_Kitchen_AP_sum,rssi_Lounge_AP_mean,rssi_Lounge_AP_std,rssi_Lounge_AP_min,rssi_Lounge_AP_median,rssi_Lounge_AP_max,rssi_Lounge_AP_sum,rssi_Upstairs_AP_mean,rssi_Upstairs_AP_std,rssi_Upstairs_AP_min,rssi_Upstairs_AP_median,rssi_Upstairs_AP_max,rssi_Upstairs_AP_sum,rssi_Study_AP_mean,rssi_Study_AP_std,rssi_Study_AP_min,rssi_Study_AP_median,rssi_Study_AP_max,rssi_Study_AP_sum
-0.8459,0.007575618786607475,-0.858,-0.848,-0.832,-16.918,0.31579999999999997,0.006193545026880814,0.3,0.316,0.326,6.316,0.38689999999999997,0.008184741901856168,0.376,0.384,0.406,7.7379999999999995,-84.65,0.47696960070847283,-85.0,-85.0,-84.0,-1693.0,-79.0,0.0,-79.0,,-79.0,-237.0,-92.5625,1.1162856937182344,-94.0,,-91.0,-1481.0,,,,,,0.0
-0.8426,0.007351190379795649,-0.858,-0.84,-0.832,-16.852,0.3162999999999999,0.00793158243984138,0.296,0.317,0.326,6.325999999999999,0.3879,0.008728688332160797,0.37,0.386,0.408,7.758,-84.6,0.4898979485566356,-85.0,-85.0,-84.0,-1692.0,,,,,,0.0,-93.4,1.5620499351813308,-95.0,-93.0,-91.0,-1868.0,,,,,,0.0
-0.8552,0.013555810562264447,-0.878,-0.858,-0.826,-17.104,0.29599999999999993,0.017064583206161228,0.268,0.296,0.32,5.919999999999999,0.37249999999999994,0.014041011359585189,0.344,0.376,0.398,7.449999999999999,-85.3,1.8734993995195193,-88.0,-85.0,-79.0,-1706.0,-79.0,0.0,-79.0,,-79.0,-316.0,-95.05,3.3834154341434335,-100.0,-95.0,-84.0,-1901.0,,,,,,0.0
-0.8394999999999999,0.03076280221306245,-0.922,-0.839,-0.784,-16.79,0.3617,0.07645985874954257,0.262,0.324,0.498,7.234,0.3472,0.06955400779250609,0.258,0.33799999999999997,0.44,6.944,-83.15,3.6093628246547893,-88.0,-82.0,-79.0,-1663.0,-86.76470588235294,4.277566814752434,-99.0,,-83.0,-1475.0,-87.65,5.227571137727349,-96.0,-86.0,-81.0,-1753.0,,,,,,0.0
-0.3008,0.3448190249971715,-0.922,-0.155,0.142,-6.016,0.8468000000000002,0.23813895103489477,0.432,0.884,1.312,16.936000000000003,-0.0157,0.167133808668384,-0.216,-0.049,0.28,-0.314,-92.75,4.115519408288582,-97.0,,-86.0,-1484.0,-88.65,5.772997488307092,-99.0,-86.0,-82.0,-1773.0,-92.5625,6.528483265659797,-102.0,,-81.0,-1481.0,,,,,,0.0
0.06999999999999999,0.11832159566199231,-0.116,0.067,0.31,1.4,0.8801,0.16354996178538228,0.578,0.907,1.12,17.602,0.1734,0.2537361621842657,-0.338,0.279,0.48,3.468,-93.3125,3.7536440627741996,-103.0,,-90.0,-1493.0,-87.35,2.688401011754013,-92.0,-86.0,-85.0,-1747.0,-95.45454545454545,4.0979736980307795,-102.0,,-92.0,-1050.0,,,,,,0.0
0.0659,0.08782590733946334,-0.144,0.055,0.206,1.318,0.783,0.13522056056680137,0.572,0.783,1.1,15.66,-0.4628,0.08611016200193797,-0.628,-0.462,-0.218,-9.256,-100.06666666666666,2.3513589451397863,-103.0,,-97.0,-1501.0,-89.0,3.1622776601683795,-95.0,-89.0,-84.0,-1780.0,-97.0,2.0,-99.0,,-95.0,-776.0,,,,,,0.0
0.042,0.108816359064251,-0.208,0.056999999999999995,0.188,0.672,0.839375,0.10896265128474066,0.638,0.859,0.99,13.43,-0.45887500000000003,0.11568917138176762,-0.648,-0.455,-0.178,-7.3420000000000005,-100.0,0.0,-100.0,,-100.0,-100.0,-90.125,3.9823830805184977,-95.0,,-84.0,-721.0,-100.6923076923077,3.581675915945482,-103.0,,-89.0,-1309.0,,,,,,0.0
0.0436,0.18005843495932092,-0.254,-0.018,0.396,0.872,0.8928,0.211119302765048,0.6,0.874,1.378,17.856,-0.1598,0.12522124420400876,-0.482,-0.147,0.086,-3.196,-95.05,2.4794152536434875,-100.0,-95.0,-92.0,-1901.0,-84.75,1.1989578808281798,-88.0,,-84.0,-1356.0,-93.55,2.5975950415721076,-96.0,-95.0,-89.0,-1871.0,,,,,,0.0
-0.05555555555555555,0.10707744975910465,-0.264,-0.04,0.088,-1.0,0.8797777777777778,0.15045396326361227,0.54,0.875,1.154,15.836,0.30622222222222223,0.3557595248284616,-0.298,0.435,0.854,5.5120000000000005,-94.77777777777777,2.298684540619689,-99.0,-94.0,-93.0,-1706.0,-88.88888888888889,3.8425814368423516,-93.0,-88.0,-84.0,-1600.0,-96.57142857142857,4.370588154508101,-100.0,,-90.0,-1352.0,,,,,,0.0
-0.47169999999999995,0.10007652072289483,-0.65,-0.46,-0.296,-9.434,0.8253999999999999,0.08982004230682593,0.678,0.819,0.978,16.508,0.20249999999999999,0.1834806529310379,-0.096,0.196,0.48,4.05,-96.25,2.680951323690902,-99.0,,-92.0,-1540.0,-84.4,6.590902821313631,-97.0,-82.0,-78.0,-1688.0,-77.0,1.6733200530681511,-80.0,-77.0,-75.0,-1540.0,,,,,,0.0
-0.4478,0.06681586637917675,-0.558,-0.445,-0.32,-8.956,0.7425999999999999,0.12683075336841612,0.556,0.727,1.152,14.851999999999999,0.43509999999999993,0.18627235436317435,-0.124,0.495,0.636,8.701999999999998,-96.0,5.0,-101.0,,-91.0,-768.0,-84.8,3.1874754901018454,-89.0,-84.0,-81.0,-1696.0,-80.4,2.244994432064365,-84.0,-80.0,-77.0,-1608.0,,,,,,0.0
-0.5032,0.011973303637676624,-0.524,-0.5,-0.482,-10.064,0.7138,0.015177615095923339,0.68,0.71,0.752,14.276,0.47739999999999994,0.011766052864066177,0.454,0.477,0.498,9.547999999999998,-90.0,0.0,-90.0,-90.0,-90.0,-1800.0,-93.0,4.604345773288535,-102.0,-91.0,-89.0,-1860.0,-81.0,0.0,-81.0,-81.0,-81.0,-1620.0,,,,,,0.0
-0.517,0.029383668933610052,-0.61,-0.508,-0.48,-10.34,0.7214000000000002,0.04089058571358449,0.608,0.718,0.83,14.428000000000003,0.47910000000000014,0.022991085228844684,0.448,0.476,0.534,9.582000000000003,-90.6,1.2,-93.0,-90.0,-90.0,-1812.0,-90.4,2.8,-93.0,-91.0,-85.0,-1808.0,-80.0,0.0,-80.0,-80.0,-80.0,-1600.0,,,,,,0.0
-0.2151,0.37797220797302017,-0.552,-0.399,0.748,-4.3020000000000005,0.7148999999999999,0.10842781008578935,0.44,0.723,0.908,14.297999999999998,0.6063,0.13033230604880738,0.418,0.567,0.87,12.126,-94.25,3.5619517121937516,-99.0,,-89.0,-1508.0,-84.2,3.6000000000000005,-90.0,-84.0,-80.0,-1684.0,-83.0,3.521363372331802,-89.0,-81.0,-80.0,-1660.0,,,,,,0.0
0.7302,0.06878052049817594,0.59,0.735,0.83,14.604,-0.157,0.177166023830756,-0.314,-0.23299999999999998,0.312,-3.14,0.6353,0.049166146889907905,0.546,0.644,0.736,12.706,-92.0,6.0,-104.0,-89.0,-89.0,-1840.0,-86.0,2.6076809620810595,-91.0,-85.0,-84.0,-1720.0,-85.4,1.0198039027185568,-87.0,-85.0,-84.0,-1708.0,,,,,,0.0
0.7986000000000001,0.018221964767828953,0.742,0.801,0.824,15.972000000000001,-0.2395,0.01483071137875726,-0.274,-0.24,-0.216,-4.79,0.6091,0.01858467110282021,0.57,0.612,0.644,12.181999999999999,-89.2,0.39999999999999997,-90.0,-89.0,-89.0,-1784.0,-84.25,0.4330127018922193,-85.0,,-84.0,-1348.0,-85.4,0.4898979485566356,-86.0,-85.0,-85.0,-1708.0,,,,,,0.0
0.42925,0.4345019418828873,-0.532,0.616,0.816,6.868,0.20225,0.5491802413597926,-0.264,-0.11299999999999999,1.222,3.236,0.5485,0.06931630399841007,0.332,0.55,0.664,8.776,-93.0,4.949747468305833,-101.0,-91.5,-88.0,-1488.0,-83.75,1.7853571071357126,-86.0,-84.0,-81.0,-1340.0,-83.0,2.1213203435596424,-86.0,-82.5,-81.0,-1328.0,,,,,,0.0
-0.4117,0.06323060967601056,-0.53,-0.419,-0.288,-8.234,0.8361999999999998,0.18698224514643091,0.448,0.8069999999999999,1.23,16.723999999999997,0.3514999999999999,0.22909550410254673,-0.104,0.474,0.606,7.0299999999999985,-94.75,4.322904116447646,-99.0,,-88.0,-1516.0,-84.0,2.1908902300206643,-87.0,-83.0,-81.0,-1680.0,-81.2,4.261455150532504,-88.0,-79.0,-76.0,-1624.0,,,,,,0.0
-0.5402,0.04756006728338387,-0.668,-0.538,-0.446,-10.804,0.6502999999999999,0.06969153463656828,0.55,0.634,0.838,13.005999999999998,0.5583999999999999,0.03938832314277925,0.472,0.5589999999999999,0.622,11.167999999999997,-91.4,6.1514225996918785,-103.0,-89.0,-86.0,-1828.0,-89.5,2.8722813232690143,-94.0,,-86.0,-1432.0,-91.0,3.0983866769659336,-96.0,-90.0,-88.0,-1820.0,,,,,,0.0
-0.5553000000000001,0.01175202110277205,-0.584,-0.557,-0.528,-11.106000000000002,0.6296,0.013979985693841047,0.6,0.628,0.652,12.592,0.5481,0.009412226091632106,0.532,0.551,0.56,10.962000000000002,-88.2,1.8330302779823358,-90.0,-89.0,-86.0,-1764.0,-85.2,0.7483314773547882,-86.0,-85.0,-84.0,-1704.0,-94.0,2.9664793948382653,-99.0,-94.0,-91.0,-1880.0,,,,,,0.0
-0.5465000000000001,0.005133225107084244,-0.56,-0.546,-0.536,-10.930000000000001,0.6362999999999999,0.009864583113340378,0.608,0.636,0.654,12.725999999999997,0.5503000000000001,0.006701492371106609,0.536,0.55,0.56,11.006000000000002,-87.2,2.4819347291981715,-92.0,-86.0,-85.0,-1744.0,-89.25,3.418698582794336,-95.0,,-86.0,-1428.0,-90.5,0.5,-91.0,,-90.0,-1448.0,,,,,,0.0
-0.5465000000000001,0.011452074047961783,-0.57,-0.547,-0.528,-10.930000000000001,0.6407,0.009343982020530656,0.62,0.642,0.654,12.814,0.5441,0.0100094954917818,0.518,0.543,0.56,10.882000000000001,-85.2,0.4,-86.0,-85.0,-85.0,-1704.0,-87.8,0.7483314773547882,-89.0,-88.0,-87.0,-1756.0,-88.4,0.4898979485566356,-89.0,-88.0,-88.0,-1768.0,,,,,,0.0
-0.553,0.01156719499273698,-0.574,-0.551,-0.536,-11.06,0.6354,0.010678951259370005,0.608,0.636,0.65,12.708,0.5471,0.009888882646689674,0.518,0.548,0.56,10.942,-85.2,0.39999999999999997,-86.0,-85.0,-85.0,-1704.0,-87.6,1.0198039027185568,-89.0,-88.0,-86.0,-1752.0,-88.8,0.39999999999999997,-89.0,-89.0,-88.0,-1776.0,,,,,,0.0
-0.5476000000000001,0.010461357464497625,-0.562,-0.547,-0.514,-10.952000000000002,0.6361000000000001,0.015407465722824126,0.608,0.64,0.658,12.722000000000001,0.5353000000000001,0.009105492847726594,0.51,0.54,0.546,10.706000000000001,-85.0,0.0,-85.0,-85.0,-85.0,-1700.0,-87.8,0.7483314773547882,-89.0,-88.0,-87.0,-1756.0,-88.4,0.4898979485566356,-89.0,-88.0,-88.0,-1768.0,,,,,,0.0
-0.3617000000000001,0.3930624759500708,-0.878,-0.544,0.592,-7.234000000000002,0.671,0.11844239105995792,0.372,0.646,0.902,13.42,0.5607000000000001,0.222034479304454,0.012,0.546,0.992,11.214000000000002,-94.4,7.418894796396564,-103.0,-95.0,-85.0,-1888.0,-86.0,7.582875444051551,-98.0,,-77.0,-1376.0,-92.6,2.9393876913398134,-96.0,-92.0,-89.0,-1852.0,,,,,,0.0
0.17070000000000002,0.22899456325423975,-0.464,0.156,0.462,3.414,0.8746,0.38187961453840397,0.108,0.909,1.592,17.492,0.0686,0.1576719378963803,-0.25,0.063,0.404,1.3719999999999999,-94.6,3.9293765408777004,-99.0,-96.0,-89.0,-1892.0,-84.0,8.07465169527454,-98.0,-79.0,-76.0,-1680.0,-87.4,3.7202150475476548,-92.0,-87.0,-82.0,-1748.0,,,,,,0.0
0.06440000000000001,0.034430219284808515,-0.008,0.061,0.128,1.2880000000000003,0.9951999999999999,0.1791540119561937,0.838,0.952,1.708,19.903999999999996,0.0317,0.04193936098702506,-0.09,0.027,0.108,0.634,-93.0,1.6733200530681511,-95.0,-93.0,-90.0,-1860.0,-90.0,3.03315017762062,-95.0,-90.0,-86.0,-1800.0,-89.8,3.7629775444453553,-97.0,-88.0,-87.0,-1796.0,,,,,,0.0
0.1729,0.07143521540528873,0.118,0.152,0.398,3.458,0.9721,0.09427083324125228,0.856,0.947,1.212,19.442,-0.010900000000000003,0.19030656846257304,-0.188,-0.072,0.61,-0.21800000000000008,-96.25,4.815340071064556,-103.0,,-90.0,-1540.0,-90.75,3.6314597615834874,-97.0,,-88.0,-1452.0,-93.0,4.08248290463863,-98.0,,-88.0,-1116.0,,,,,,0.0
0.6203000000000001,0.08793469167512899,0.472,0.647,0.77,12.406,0.5970000000000001,0.0834397986574752,0.44,0.594,0.748,11.940000000000001,0.3908,0.04065661077856835,0.334,0.381,0.454,7.816,-94.0,1.0,-95.0,,-93.0,-752.0,-79.0,0.6324555320336759,-80.0,-79.0,-78.0,-1580.0,-86.6,1.624807680927192,-89.0,-86.0,-85.0,-1732.0,,,,,,0.0
0.32430000000000003,0.29510152490287134,-0.084,0.194,0.8,6.486000000000001,0.39640000000000003,0.244854732443545,-0.09,0.399,0.91,7.928000000000001,0.8020999999999999,0.26131320288114035,0.38,0.823,1.27,16.041999999999998,-97.5,2.5,-100.0,,-95.0,-780.0,-90.0,6.387487769068525,-99.0,-89.0,-81.0,-1800.0,-85.4,4.317406628984581,-93.0,-84.0,-81.0,-1708.0,,,,,,0.0
-0.1397,0.10010849114835366,-0.378,-0.128,0.006,-2.794,0.12440000000000002,0.09511803193927007,-0.116,0.128,0.366,2.4880000000000004,0.9963000000000003,0.18043865993738706,0.638,1.0150000000000001,1.36,19.926000000000005,-100.33333333333333,3.7712361663282534,-103.0,,-95.0,-1204.0,-86.2,4.019950248448356,-90.0,-88.0,-80.0,-1724.0,-84.8,3.1874754901018454,-88.0,-86.0,-81.0,-1696.0,,,,,,0.0
-0.8989,0.18895552386739053,-1.354,-0.88,-0.5,-17.978,0.32060000000000005,0.09675763535762953,0.188,0.306,0.61,6.412000000000001,0.489,0.15277892524821607,0.268,0.472,0.754,9.78,-86.8,3.1240998703626612,-90.0,-89.0,-83.0,-1736.0,-80.6,1.7435595774162693,-82.0,-82.0,-78.0,-1612.0,-82.0,3.521363372331802,-88.0,-82.0,-78.0,-1640.0,,,,,,0.0
-0.8641,0.02526242268667041,-0.898,-0.866,-0.772,-17.282,0.2859,0.023155776817027754,0.24,0.287,0.322,5.718,0.35679999999999995,0.016557777628655363,0.326,0.357,0.398,7.135999999999999,-85.6,7.735631842325485,-101.0,-82.0,-81.0,-1712.0,-82.6,1.0198039027185568,-84.0,-83.0,-81.0,-1652.0,-88.4,5.4626001134990645,-98.0,-88.0,-81.0,-1768.0,,,,,,0.0
-0.8662000000000001,0.008388086790204313,-0.88,-0.866,-0.844,-17.324,0.2888,0.013136209498938409,0.268,0.288,0.312,5.776,0.34429999999999994,0.015142985174660896,0.326,0.34199999999999997,0.382,6.885999999999999,-82.4,0.7999999999999999,-83.0,-83.0,-81.0,-1648.0,-84.0,1.6733200530681511,-87.0,-84.0,-82.0,-1680.0,-87.25,2.5860201081971503,-91.0,,-84.0,-1396.0,,,,,,0.0
-0.8573000000000001,0.024684205476376994,-0.882,-0.862,-0.754,-17.146,0.2919999999999999,0.007293833011524186,0.27,0.294,0.302,5.839999999999999,0.3423,0.009659710140578742,0.312,0.344,0.352,6.846,-82.0,0.0,-82.0,-82.0,-82.0,-1640.0,-83.4,0.4898979485566356,-84.0,-83.0,-83.0,-1668.0,-87.5,4.5,-95.0,,-84.0,-1400.0,,,,,,0.0
-0.8662000000000001,0.0054000000000000055,-0.878,-0.866,-0.856,-17.324,0.28569999999999995,0.008608716512930357,0.27,0.286,0.3,5.7139999999999995,0.3513,0.010531381675734664,0.334,0.351,0.376,7.026,-81.6,0.4898979485566356,-82.0,-82.0,-81.0,-1632.0,-88.8,8.133879763065103,-105.0,-85.0,-84.0,-1776.0,-86.4,4.923413450036469,-96.0,-84.0,-83.0,-1728.0,,,,,,0.0
-0.8648,0.02599538420566237,-0.898,-0.878,-0.8,-17.296,0.20439999999999997,0.08833255345567681,0.034,0.244,0.326,4.087999999999999,0.366,0.051252317020794295,0.262,0.365,0.476,7.319999999999999,-88.2,5.2687759489277965,-97.0,-86.0,-82.0,-1764.0,-84.6,8.404760555780278,-101.0,-82.0,-78.0,-1692.0,-85.0,1.0954451150103321,-87.0,-85.0,-84.0,-1700.0,,,,,,0.0
-0.8901999999999999,0.02243122823208752,-0.952,-0.886,-0.862,-17.804,0.2855,0.03989924811321637,0.204,0.28,0.398,5.709999999999999,0.31820000000000004,0.04107992210313939,0.27,0.305,0.396,6.364000000000001,-87.75,2.48746859276655,-90.0,,-84.0,-1404.0,-87.0,3.5777087639996634,-94.0,-86.0,-84.0,-1740.0,-83.0,2.0,-85.0,,-81.0,-1328.0,,,,,,0.0
-0.876,0.01391402170474088,-0.906,-0.877,-0.848,-17.52,0.2926999999999999,0.010242558274181303,0.27,0.295,0.306,5.853999999999998,0.2949999999999999,0.01135781669160055,0.278,0.294,0.318,5.899999999999998,-89.33333333333333,3.299831645537222,-93.0,,-85.0,-1072.0,-84.2,0.9797958971132712,-86.0,-84.0,-83.0,-1684.0,-81.75,0.82915619758885,-83.0,,-81.0,-1308.0,,,,,,0.0
-0.8818999999999999,0.011738398527908322,-0.904,-0.881,-0.864,-17.637999999999998,0.2825,0.007921489758877414,0.268,0.284,0.294,5.6499999999999995,0.28969999999999996,0.012268251709188228,0.262,0.288,0.32,5.794,-88.6,2.9393876913398134,-94.0,-88.0,-86.0,-1772.0,-88.4,1.3564659966250536,-90.0,-89.0,-86.0,-1768.0,-95.66666666666667,0.4714045207910317,-96.0,,-95.0,-1148.0,,,,,,0.0
-0.8583000000000001,0.0316181909665939,-0.906,-0.862,-0.784,-17.166,0.33449999999999996,0.05508130354303536,0.27,0.31,0.482,6.6899999999999995,0.3238,0.029119752746203056,0.288,0.314,0.392,6.476,-90.0,0.7071067811865476,-91.0,,-89.0,-1440.0,-83.2,1.1661903789690602,-84.0,-84.0,-81.0,-1664.0,-86.0,3.847076812334269,-92.0,-84.0,-82.0,-1720.0,,,,,,0.0
-0.773,0.11389029809426263,-0.922,-0.812,-0.58,-15.46,0.3822,0.2516075515559897,-0.142,0.406,0.754,7.644,0.3951,0.10032043660192075,0.216,0.429,0.55,7.902,-89.0,6.6332495807108,-100.0,-90.0,-80.0,-1780.0,-89.0,5.329165037789691,-99.0,-88.0,-84.0,-1780.0,-84.4,2.6532998322843193,-88.0,-84.0,-80.0,-1688.0,,,,,,0.0
-0.8663000000000001,0.2543464369713089,-1.53,-0.824,-0.472,-17.326,0.3413,0.16034996102275798,0.066,0.32699999999999996,0.582,6.826,0.32920000000000005,0.0662703553634655,0.2,0.332,0.51,6.5840000000000005,-94.6,3.0066592756745814,-99.0,-94.0,-91.0,-1892.0,-92.75,2.48746859276655,-95.0,,-89.0,-1484.0,-83.8,2.993325909419153,-88.0,-84.0,-80.0,-1676.0,,,,,,0.0
-0.8073,0.2229612298136158,-1.184,-0.833,-0.408,-16.146,0.5736,0.39507244905206945,-0.002,0.425,1.344,11.472,0.049399999999999986,0.39195566075769334,-0.738,0.22699999999999998,0.492,0.9879999999999998,-81.8,3.6551333764994136,-87.0,-81.0,-76.0,-1636.0,-86.5,4.153311931459037,-91.0,,-81.0,-1384.0,-76.4,4.317406628984581,-82.0,-76.0,-69.0,-1528.0,,,,,,0.0
-0.1068,0.2666746332143348,-0.666,-0.081,0.312,-2.136,0.8405000000000001,0.2825171676199519,0.2,0.842,1.386,16.810000000000002,0.29029999999999995,0.2901518740246218,-0.336,0.20400000000000001,0.742,5.805999999999999,-91.0,8.631338250816034,-101.0,,-78.0,-1456.0,-80.5,4.330127018922194,-87.0,,-75.0,-1288.0,-83.4,5.122499389946279,-92.0,-83.0,-76.0,-1668.0,,,,,,0.0
-0.5663,0.39918530784586753,-1.04,-0.5780000000000001,0.126,-11.326,0.6537,0.23836130138929854,0.338,0.623,1.008,13.073999999999998,0.3182,0.06469590404345549,0.134,0.314,0.448,6.364,-86.4,4.841487374764082,-92.0,-87.0,-78.0,-1728.0,-73.0,1.8973665961010275,-75.0,-73.0,-70.0,-1460.0,-87.4,7.255342858886822,-100.0,-86.0,-80.0,-1748.0,,,,,,0.0
-0.8544,0.06378589185705566,-1.012,-0.861,-0.712,-17.088,0.2979,0.03590807708580341,0.194,0.307,0.348,5.958,0.3054,0.06770258488418297,0.176,0.322,0.408,6.1080000000000005,-81.0,2.449489742783178,-84.0,-81.0,-77.0,-1620.0,-74.6,5.122499389946279,-84.0,-74.0,-70.0,-1492.0,-89.6,4.498888751680798,-96.0,-88.0,-83.0,-1792.0,,,,,,0.0
-0.8812,0.030400000000000014,-0.948,-0.882,-0.818,-17.624,0.31039999999999995,0.02210520300743696,0.262,0.315,0.344,6.207999999999999,0.2892,0.05079133784416394,0.176,0.297,0.364,5.784,-76.4,1.3564659966250536,-78.0,-76.0,-75.0,-1528.0,-83.6,3.49857113690718,-88.0,-85.0,-79.0,-1672.0,-85.0,2.1908902300206643,-88.0,-84.0,-82.0,-1700.0,,,,,,0.0
-0.8569000000000001,0.01343837787830065,-0.884,-0.856,-0.826,-17.138,0.30029999999999996,0.01755306241087293,0.258,0.295,0.338,6.005999999999999,0.34120000000000006,0.021027600909281106,0.304,0.336,0.408,6.824000000000001,-80.6,4.2708313008125245,-87.0,-81.0,-75.0,-1612.0,-78.8,10.684568311354464,-100.0,-75.0,-72.0,-1576.0,-87.8,3.867815921162743,-93.0,-88.0,-83.0,-1756.0,,,,,,0.0
-0.6754000000000001,0.32516832564073644,-1.058,-0.864,0.056,-13.508000000000003,0.6358999999999999,0.3756058971848019,0.034,0.583,1.424,12.717999999999998,0.4824,0.2171106630269458,0.104,0.474,0.882,9.648,-83.6,6.681317235396027,-94.0,-79.0,-77.0,-1672.0,-70.4,0.7999999999999999,-72.0,-70.0,-70.0,-1408.0,-85.8,4.707440918375928,-93.0,-86.0,-79.0,-1716.0,,,,,,0.0
-0.7322,0.06904751986856589,-0.926,-0.704,-0.64,-14.644,0.6203999999999998,0.23912306455045276,0.478,0.553,1.602,12.407999999999998,-0.1246,0.2739854740675133,-0.506,-0.20700000000000002,0.56,-2.492,-90.25,3.112474899497183,-93.0,,-85.0,-1444.0,-73.0,4.427188724235731,-81.0,-72.0,-69.0,-1460.0,-90.0,4.847679857416329,-98.0,,-85.0,-1440.0,,,,,,0.0
-0.8032,0.09409229511495615,-0.962,-0.771,-0.666,-16.064,0.41,0.15917537497992584,0.14,0.422,0.688,8.2,-0.046000000000000006,0.11282198367339584,-0.248,-0.038,0.174,-0.9200000000000002,-100.0,0.0,-100.0,,-100.0,-400.0,-69.6,1.4966629547095764,-72.0,-70.0,-68.0,-1392.0,,,,,,0.0,,,,,,0.0
-0.9141999999999999,0.06364872347502344,-1.01,-0.907,-0.81,-18.284,0.1119,0.12659300928566317,-0.2,0.126,0.4,2.238,0.021299999999999993,0.22620457555054005,-0.306,-0.052000000000000005,0.376,0.4259999999999999,-98.33333333333333,4.642796092394707,-103.0,,-92.0,-1180.0,-73.6,4.841487374764082,-80.0,-70.0,-69.0,-1472.0,-95.66666666666667,3.299831645537222,-98.0,,-91.0,-1148.0,,,,,,0.0
-0.7192000000000001,0.15582092285697707,-1.034,-0.746,-0.426,-14.384,0.6732000000000001,0.22239010769366518,0.286,0.666,1.054,13.464000000000002,0.06480000000000001,0.20947591747024286,-0.282,0.040999999999999995,0.638,1.2960000000000003,-93.5,3.5,-97.0,,-90.0,-748.0,-76.4,2.244994432064365,-78.0,-77.0,-72.0,-1528.0,-88.5,4.272001872658765,-95.0,,-83.0,-1416.0,,,,,,0.0
-0.7874,0.13184399872576683,-0.978,-0.7989999999999999,-0.328,-15.748,0.5906,0.2437491333317926,-0.002,0.586,1.12,11.812,-0.11050000000000001,0.22880723327727207,-0.676,-0.123,0.514,-2.2100000000000004,-98.66666666666667,3.299831645537222,-103.0,,-95.0,-1184.0,-82.2,3.54400902933387,-88.0,-83.0,-78.0,-1644.0,-90.4,4.841487374764082,-97.0,-88.0,-84.0,-1808.0,,,,,,0.0
-0.8183999999999999,0.1238928569369518,-1.122,-0.816,-0.634,-16.368,0.31150000000000005,0.155475882374084,0.04,0.32699999999999996,0.614,6.230000000000001,0.3171,0.33049748864401374,-0.34,0.454,0.718,6.342,-97.0,0.0,-97.0,,-97.0,-388.0,-75.4,2.5768197453450252,-78.0,-75.0,-71.0,-1508.0,-93.2,4.166533331199932,-100.0,-93.0,-88.0,-1864.0,,,,,,0.0
-0.9094000000000001,0.1606587688238647,-1.362,-0.902,-0.656,-18.188000000000002,0.32970000000000005,0.11578302984461929,0.16,0.31899999999999995,0.574,6.594000000000001,0.27649999999999997,0.1413730879623134,0.04,0.292,0.518,5.529999999999999,,,,,,0.0,-71.4,4.409081537009721,-78.0,-69.0,-66.0,-1428.0,,,,,,0.0,,,,,,0.0
-0.8566,0.7606731492566305,-2.784,-0.755,0.318,-17.132,0.3342,0.5707408869180479,-1.33,0.217,1.456,6.684,0.12289999999999998,0.13486656368425792,-0.098,0.075,0.47,2.4579999999999997,,,,,,0.0,-69.6,2.0591260281974004,-72.0,-69.0,-67.0,-1392.0,,,,,,0.0,,,,,,0.0
-1.0258999999999998,0.7414743353616496,-2.93,-0.719,-0.16,-20.517999999999997,0.5574,0.47480863513630417,-0.14,0.42,1.472,11.148,0.18749999999999997,0.214218463256555,-0.338,0.265,0.472,3.7499999999999996,,,,,,0.0,-72.0,4.560701700396552,-78.0,-72.0,-66.0,-1440.0,,,,,,0.0,,,,,,0.0
-0.39757894736842103,0.49156188407216456,-1.85,-0.226,0.228,-7.553999999999999,0.54,0.8659585501202213,-0.626,0.344,2.432,10.26,0.20052631578947372,0.13622093834767596,-0.114,0.198,0.464,3.8100000000000005,,,,,,0.0,-72.05263157894737,1.4317337377616253,-74.0,-72.0,-70.0,-1369.0,,,,,,0.0,,,,,,0.0
-0.8986000000000001,0.11819323161670468,-1.134,-0.89,-0.648,-17.972,0.33469999999999994,0.1212539071535429,0.13,0.291,0.662,6.693999999999999,0.34349999999999997,0.0923295727272687,0.108,0.34199999999999997,0.528,6.869999999999999,,,,,,0.0,-73.1,0.8888194417315588,-74.0,-73.0,-71.0,-1462.0,,,,,,0.0,,,,,,0.0
-0.8732,0.012812493902437584,-0.89,-0.872,-0.846,-17.464,0.2960999999999999,0.013497777594848713,0.27,0.298,0.322,5.921999999999999,0.31910000000000005,0.01709356604105767,0.28,0.32,0.348,6.382000000000001,,,,,,0.0,-72.8,0.7483314773547882,-74.0,-73.0,-72.0,-1456.0,,,,,,0.0,,,,,,0.0
-0.8667000000000001,0.03923913862459266,-0.946,-0.876,-0.77,-17.334000000000003,0.27670000000000006,0.12993887024289538,-0.162,0.303,0.496,5.534000000000001,0.32920000000000005,0.05493778299130755,0.216,0.314,0.468,6.5840000000000005,,,,,,0.0,-73.15,2.080264406271472,-78.0,-72.0,-72.0,-1463.0,,,,,,0.0,,,,,,0.0
-0.9043000000000001,0.05921579181265755,-1.042,-0.902,-0.808,-18.086000000000002,0.2657,0.0893784649677986,0.066,0.272,0.416,5.314,0.2671,0.10549592409188138,0.112,0.261,0.428,5.342,,,,,,0.0,-72.65,5.772997488307092,-79.0,-75.0,-65.0,-1453.0,,,,,,0.0,,,,,,0.0
-0.9649000000000001,0.157176938511984,-1.278,-0.968,-0.632,-19.298000000000002,0.3516,0.2636433955175058,-0.04,0.371,0.764,7.032,0.33890000000000003,0.09722237396813554,0.166,0.391,0.462,6.7780000000000005,,,,,,0.0,-66.2,2.08806130178211,-69.0,-67.0,-63.0,-1324.0,-101.0,0.0,-101.0,,-101.0,-303.0,,,,,,0.0
-0.19909999999999994,0.32572103094519395,-0.954,-0.216,0.368,-3.981999999999999,0.1069,0.24778819584475772,-0.266,0.048,0.814,2.138,0.9067999999999999,0.287043829405894,0.28,0.88,1.414,18.136,,,,,,0.0,-72.15,1.49248115565993,-74.0,-72.0,-69.0,-1443.0,-94.91666666666667,5.823205493731285,-102.0,,-90.0,-1139.0,,,,,,0.0
0.5341000000000001,0.2590107912809812,0.142,0.521,1.094,10.682000000000002,0.704,0.5001451789230803,0.07,0.513,1.998,14.08,0.4800999999999999,0.38786259164812475,-0.178,0.46499999999999997,1.068,9.601999999999999,,,,,,0.0,-73.2,2.181742422927143,-76.0,-73.0,-70.0,-1464.0,-89.6923076923077,3.6243750736583835,-95.0,,-87.0,-1166.0,,,,,,0.0
0.254,0.5050158413356951,-0.912,0.20800000000000002,0.954,4.064,0.5251250000000001,0.41977075216717996,-0.04,0.359,1.342,8.402000000000001,0.55425,0.17741318299382375,0.294,0.565,0.846,8.868,,,,,,0.0,-71.0625,1.7488835724541527,-73.0,-70.0,-69.0,-1137.0,,,,,,0.0,,,,,,0.0
-0.9233000000000002,0.3086190370019322,-1.476,-0.962,-0.12,-18.466000000000005,0.5896,0.14049711740815182,0.334,0.584,0.984,11.792,0.4766,0.17260023174955474,0.19,0.436,0.83,9.532,,,,,,0.0,-77.65,4.89157438868101,-87.0,-76.0,-73.0,-1553.0,-97.0,0.0,-97.0,,-97.0,-388.0,,,,,,0.0
0.3284000000000001,0.16517215261659576,0.024,0.369,0.556,6.568000000000001,0.1764,0.3258604609338175,-0.548,0.241,0.718,3.528,0.8905,0.159813485038028,0.504,0.935,1.132,17.81,-100.0,0.0,-100.0,,-100.0,-300.0,-77.0,4.147288270665544,-84.0,-76.0,-73.0,-1540.0,,,,,,0.0,,,,,,0.0
0.47870000000000007,0.16677922532497866,0.178,0.474,0.712,9.574000000000002,0.5451,0.19928017964664727,0.206,0.499,1.102,10.902000000000001,0.7162,0.16821997503269343,0.348,0.6890000000000001,0.998,14.323999999999998,-102.4,1.2,-103.0,,-100.0,-512.0,-71.55,1.532155344604456,-76.0,-72.0,-70.0,-1431.0,,,,,,0.0,,,,,,0.0
0.3146,0.08224621571841467,0.19,0.299,0.464,6.292,0.6877000000000001,0.14693845650475576,0.424,0.6799999999999999,0.992,13.754000000000001,0.6842,0.11316165428271185,0.462,0.669,0.86,13.684000000000001,,,,,,0.0,-69.9,1.6093476939431082,-73.0,-69.0,-68.0,-1398.0,,,,,,0.0,,,,,,0.0
0.39225,0.08067488766648516,0.262,0.371,0.576,6.276,0.291,0.5067977900504302,-0.602,0.403,0.918,4.656,0.7911249999999999,0.17230056405885616,0.568,0.757,1.176,12.657999999999998,,,,,,0.0,-74.8125,2.766286997041341,-78.0,-75.0,-71.0,-1197.0,,,,,,0.0,,,,,,0.0
0.2601176470588235,0.23720774770427347,-0.168,0.242,0.694,4.422,0.14176470588235296,0.34547078354578264,-0.578,0.194,0.718,2.41,0.8308235294117647,0.07093346948673528,0.68,0.84,0.976,14.124,,,,,,0.0,-76.3529411764706,2.8889480371314527,-79.0,-78.0,-72.0,-1298.0,,,,,,0.0,,,,,,0.0
-0.9336842105263157,0.16309798560554714,-1.38,-0.858,-0.772,-17.74,0.36852631578947365,0.07219809621418635,0.24,0.374,0.52,7.002,0.3062105263157895,0.1176683917435454,0.128,0.306,0.624,5.8180000000000005,-103.0,0.0,-103.0,,-103.0,-412.0,-70.10526315789474,4.632774965192713,-78.0,-69.0,-64.0,-1332.0,-99.28571428571429,5.443588252359329,-104.0,,-93.0,-695.0,,,,,,0.0
-0.8754000000000002,0.051123771378880106,-0.984,-0.875,-0.762,-17.508000000000003,0.38180000000000003,0.06903882965404325,0.242,0.40800000000000003,0.466,7.636,0.19590000000000002,0.09681007179007771,0.074,0.182,0.348,3.918,,,,,,0.0,-68.45,1.774119499921017,-71.0,-69.0,-64.0,-1369.0,-93.0,0.0,-93.0,,-93.0,-93.0,,,,,,0.0
-0.8913,0.12638081341722723,-1.232,-0.857,-0.73,-17.826,0.23480000000000006,0.10026644503521605,-0.004,0.253,0.37,4.6960000000000015,0.24559999999999998,0.14504840571340313,-0.024,0.263,0.414,4.912,,,,,,0.0,-73.05,3.2476914878109957,-76.0,-74.0,-67.0,-1461.0,-99.14285714285714,0.989743318610787,-100.0,,-98.0,-694.0,,,,,,0.0
-0.885,0.16413957475270854,-1.16,-0.879,-0.618,-17.7,0.1096,0.1424283679608806,-0.174,0.131,0.288,2.192,0.32399999999999995,0.12345039489608772,0.046,0.353,0.51,6.4799999999999995,,,,,,0.0,-76.05,2.9236107812087435,-81.0,-75.0,-73.0,-1521.0,-98.0,0.0,-98.0,,-98.0,-98.0,,,,,,0.0
-0.9293999999999999,0.08331890541767818,-1.096,-0.936,-0.688,-18.587999999999997,0.07139999999999999,0.09014011315723981,-0.06,0.040999999999999995,0.248,1.428,0.3243,0.05822808600666864,0.24,0.303,0.454,6.486,-97.0,0.0,-97.0,,-97.0,-388.0,-75.75,1.7284386017443605,-81.0,-75.0,-74.0,-1515.0,,,,,,0.0,,,,,,0.0
-0.9445,0.07268803202728769,-1.088,-0.957,-0.776,-18.89,0.12,0.06774363438729872,-0.014,0.119,0.224,2.4,0.19250000000000003,0.04199940475768674,0.112,0.192,0.294,3.8500000000000005,-97.36363636363636,3.170108322575035,-101.0,,-93.0,-1071.0,-75.55,3.427462618322773,-82.0,-74.0,-73.0,-1511.0,,,,,,0.0,,,,,,0.0
-0.9089,0.04633562344460254,-0.996,-0.907,-0.816,-18.178,0.11700000000000002,0.046314144707637644,0.054,0.107,0.226,2.3400000000000003,0.25880000000000003,0.019893717601293128,0.22,0.262,0.302,5.176,-91.625,0.6959705453537527,-93.0,,-91.0,-733.0,-76.4,1.5620499351813308,-79.0,-76.0,-75.0,-1528.0,-104.0,0.0,-104.0,,-104.0,-312.0,,,,,,0.0
-0.924,0.053903617689353665,-1.082,-0.926,-0.83,-18.48,0.17490000000000003,0.09259908206888447,0.03,0.14700000000000002,0.342,3.4980000000000007,0.17990000000000003,0.061473490221395435,0.048,0.195,0.27,3.5980000000000008,-92.0,0.0,-92.0,,-92.0,-92.0,-74.5625,1.5799030824705673,-79.0,,-73.0,-1193.0,-98.66666666666667,1.8856180831641267,-104.0,,-98.0,-888.0,,,,,,0.0
-0.8164,0.2746209023362934,-1.294,-0.851,-0.304,-16.328,0.4226,0.22464291664773228,0.088,0.398,1.038,8.452,0.1642,0.1844211484618833,-0.29,0.207,0.424,3.2840000000000003,,,,,,0.0,-70.55,3.2011716605018234,-74.0,-69.0,-67.0,-1411.0,-101.85714285714286,2.4743582965269675,-104.0,,-99.0,-713.0,,,,,,0.0
-0.4202,0.1282340048505076,-0.784,-0.416,-0.186,-8.404,0.7678,0.1797764166958503,0.472,0.761,1.238,15.356,0.4568,0.19972020428589593,0.07,0.488,0.802,9.136,,,,,,0.0,-70.6,3.693237062523878,-77.0,-71.0,-66.0,-1412.0,-96.5,1.848422751068236,-99.0,,-94.0,-1158.0,,,,,,0.0
-0.5613999999999999,0.1374512277136876,-0.866,-0.506,-0.352,-11.227999999999998,0.7724,0.15603409883740157,0.422,0.767,1.072,15.448,0.2996,0.11001563525244944,0.072,0.31,0.608,5.992,,,,,,0.0,-67.65,1.9306734576307822,-71.0,-68.0,-65.0,-1353.0,-97.0,0.0,-97.0,,-97.0,-97.0,,,,,,0.0
-0.6164,0.09456130286750494,-0.866,-0.61,-0.498,-12.328,0.6606,0.09360576905298092,0.406,0.676,0.806,13.212,0.36340000000000006,0.05731352370950507,0.274,0.356,0.448,7.268000000000002,,,,,,0.0,-70.7,1.1445523142259597,-72.0,-71.0,-69.0,-1414.0,,,,,,0.0,,,,,,0.0
-0.5461000000000001,0.07827509182364464,-0.672,-0.559,-0.4,-10.922000000000002,0.7145,0.1392521094992819,0.316,0.731,0.88,14.290000000000001,0.17240000000000003,0.16710188508811025,-0.304,0.239,0.318,3.4480000000000004,,,,,,0.0,-70.45,2.4794152536434875,-75.0,-70.0,-68.0,-1409.0,,,,,,0.0,,,,,,0.0
-0.9019,0.3034807901663629,-1.864,-0.815,-0.578,-18.038,0.2966,0.36600770483693373,-0.22,0.312,1.388,5.9319999999999995,-0.11710000000000001,0.2731940519118233,-0.584,-0.14400000000000002,0.51,-2.342,,,,,,0.0,-70.65,1.9045996954740914,-75.0,-70.0,-68.0,-1413.0,-100.0,0.0,-100.0,,-100.0,-400.0,,,,,,0.0
-0.8609,0.1438130383518824,-1.194,-0.811,-0.64,-17.218,0.1015,0.14924593796817384,-0.202,0.122,0.398,2.0300000000000002,-0.028300000000000002,0.15067617595359925,-0.398,-0.032,0.198,-0.5660000000000001,,,,,,0.0,-71.5,5.380520420925842,-84.0,-70.0,-68.0,-1430.0,,,,,,0.0,,,,,,0.0
-0.9177,0.1382234061221181,-1.396,-0.884,-0.69,-18.354,0.045200000000000004,0.06994683695493313,-0.108,0.045,0.204,0.904,-0.21339999999999998,0.07011447782020487,-0.348,-0.211,-0.064,-4.268,,,,,,0.0,-76.1,2.233830790368868,-84.0,-75.0,-74.0,-1522.0,,,,,,0.0,,,,,,0.0
-0.9004999999999999,0.005545268253204714,-0.912,-0.9,-0.89,-18.009999999999998,0.0518,0.022234207878851903,0.014,0.049,0.108,1.036,-0.17660000000000003,0.016578299068360423,-0.222,-0.176,-0.152,-3.5320000000000005,,,,,,0.0,-76.4,0.9165151389911679,-78.0,-76.0,-74.0,-1528.0,,,,,,0.0,,,,,,0.0
-0.8991,0.008887631855561982,-0.912,-0.899,-0.884,-17.982,0.05,0.018504053609952605,0.024,0.05,0.096,1.0,-0.18359999999999999,0.01096540012949824,-0.2,-0.186,-0.16,-3.6719999999999997,,,,,,0.0,-76.05,1.4654350889752843,-78.0,-76.0,-74.0,-1521.0,,,,,,0.0,,,,,,0.0
-0.9781000000000001,0.12574653076725417,-1.296,-0.92,-0.82,-19.562,0.0295,0.08991078911899283,-0.164,0.044,0.174,0.59,-0.13169999999999998,0.10196523917492667,-0.33,-0.161,0.066,-2.634,,,,,,0.0,-74.65,3.6369630187836663,-79.0,-75.0,-68.0,-1493.0,,,,,,0.0,,,,,,0.0
-0.8291999999999999,0.07745553563174165,-0.93,-0.844,-0.68,-16.584,0.26990000000000003,0.06409828390838557,0.088,0.288,0.344,5.398000000000001,0.2185,0.08811327936242073,0.06,0.242,0.318,4.37,,,,,,0.0,-75.85,10.598466870260058,-97.0,-71.0,-68.0,-1517.0,,,,,,0.0,,,,,,0.0
-0.8738999999999999,0.016928969253915033,-0.904,-0.873,-0.834,-17.477999999999998,0.3007000000000001,0.012037856952132298,0.278,0.303,0.32,6.014000000000001,0.2892,0.01679761887887685,0.254,0.284,0.326,5.784,,,,,,0.0,-72.55,0.864580823289529,-74.0,-72.0,-71.0,-1451.0,,,,,,0.0,,,,,,0.0
-0.8801000000000002,0.01409219642213379,-0.912,-0.88,-0.856,-17.602000000000004,0.2791,0.02936307204636463,0.23,0.28700000000000003,0.324,5.582,0.2875,0.02364635278430904,0.236,0.292,0.326,5.75,,,,,,0.0,-70.15,1.6515144564913744,-73.0,-70.0,-68.0,-1403.0,,,,,,0.0,,,,,,0.0
-0.8748999999999999,0.02319029969620921,-0.932,-0.869,-0.848,-17.497999999999998,0.3001999999999999,0.011043550153822822,0.274,0.301,0.322,6.003999999999999,0.3075,0.0184485771809102,0.286,0.305,0.342,6.15,,,,,,0.0,-73.7,1.4525839046333948,-76.0,-73.0,-72.0,-1474.0,,,,,,0.0,,,,,,0.0
-0.7539,0.08567724318627438,-0.884,-0.757,-0.602,-15.078000000000001,0.4143,0.24904720436094036,0.118,0.304,1.132,8.286,0.23440000000000003,0.11413430684943068,0.054,0.262,0.56,4.688000000000001,,,,,,0.0,-69.35,2.329699551444349,-75.0,-69.0,-67.0,-1387.0,,,,,,0.0,,,,,,0.0
-0.6796,0.13335756446486266,-0.936,-0.653,-0.474,-13.592,0.6162,0.25782156620422586,0.174,0.5589999999999999,1.094,12.324,0.42489999999999994,0.0797783805300659,0.322,0.405,0.582,8.498,,,,,,0.0,-70.2,3.026549190084311,-76.0,-69.0,-67.0,-1404.0,,,,,,0.0,,,,,,0.0
-0.85425,0.09238743150450715,-1.072,-0.857,-0.68,-13.668,0.340375,0.06405942065769873,0.242,0.346,0.444,5.446,0.302875,0.08523781071214816,0.108,0.334,0.38,4.846,,,,,,0.0,-72.875,1.7275343701356567,-76.0,-74.0,-70.0,-1166.0,,,,,,0.0,,,,,,0.0
-0.8723000000000001,0.021635849879309124,-0.908,-0.873,-0.818,-17.446,0.2814,0.032595091655032965,0.198,0.288,0.336,5.627999999999999,0.3118,0.023999166652198575,0.274,0.304,0.37,6.236000000000001,,,,,,0.0,-70.15,0.3570714214271425,-71.0,-70.0,-70.0,-1403.0,,,,,,0.0,,,,,,0.0
-0.9212999999999999,0.33998427904831124,-1.952,-0.841,-0.584,-18.426,0.39869999999999994,0.1525624790045049,0.064,0.412,0.726,7.973999999999999,0.1649,0.11230222615781044,-0.032,0.147,0.344,3.2979999999999996,,,,,,0.0,-70.05,1.6874537030686203,-72.0,-70.0,-67.0,-1401.0,,,,,,0.0,,,,,,0.0
-0.7689000000000001,0.5982937322085198,-2.056,-0.823,0.744,-15.378000000000002,0.5255,0.3356866842756799,-0.004,0.499,1.432,10.51,0.2278,0.18330946511296137,-0.104,0.206,0.75,4.556,,,,,,0.0,-67.6,1.5620499351813308,-70.0,-67.0,-66.0,-1352.0,,,,,,0.0,,,,,,0.0
-0.8766,0.02844714396912283,-0.922,-0.876,-0.824,-17.532,0.3105,0.04636323974874922,0.242,0.305,0.396,6.21,0.2558,0.035047967130776646,0.222,0.242,0.34,5.1160000000000005,,,,,,0.0,-68.2,2.039607805437114,-71.0,-68.0,-66.0,-1364.0,,,,,,0.0,,,,,,0.0
-0.8673,0.02182910900609553,-0.912,-0.866,-0.828,-17.346,0.296,0.021972710347155616,0.246,0.302,0.352,5.92,0.3268,0.03662458190887645,0.264,0.32,0.4,6.536,,,,,,0.0,-67.2,0.7483314773547882,-68.0,-67.0,-66.0,-1344.0,,,,,,0.0,,,,,,0.0
-0.8649000000000001,0.011322102278287378,-0.884,-0.865,-0.846,-17.298000000000002,0.3082999999999999,0.017346757622103335,0.28,0.31,0.338,6.165999999999999,0.3193,0.01299653800056,0.296,0.317,0.344,6.385999999999999,,,,,,0.0,-68.2,1.4,-70.0,-68.0,-66.0,-1364.0,,,,,,0.0,,,,,,0.0
-0.8742000000000001,0.010693923508235888,-0.89,-0.874,-0.846,-17.484,0.28650000000000003,0.02549411696843018,0.248,0.28300000000000003,0.37,5.73,0.3125,0.011486949116279755,0.288,0.312,0.336,6.25,,,,,,0.0,-68.15,0.7262919523166975,-70.0,-68.0,-67.0,-1363.0,,,,,,0.0,,,,,,0.0
-0.866,0.06783509416224025,-0.976,-0.877,-0.73,-17.32,0.27269999999999994,0.11342182329692994,0.006,0.27,0.462,5.453999999999999,0.3187,0.08253550751040428,0.212,0.289,0.466,6.374,,,,,,0.0,-70.85,2.706935536727833,-74.0,-71.0,-67.0,-1417.0,,,,,,0.0,,,,,,0.0
-0.8873,0.17711383345182272,-1.214,-0.923,-0.56,-17.746,0.38129999999999986,0.16454576870889145,0.152,0.352,0.786,7.625999999999998,0.06919999999999998,0.14991517601630597,-0.158,0.036,0.422,1.3839999999999997,,,,,,0.0,-69.0,2.898275349237888,-74.0,-69.0,-65.0,-1380.0,-100.0,0.0,-100.0,,-100.0,-300.0,,,,,,0.0
0.3558,0.50887676307727,-0.904,0.484,0.846,7.116,0.16729999999999995,0.7695770981519655,-0.642,-0.264,1.56,3.3459999999999988,0.45990000000000003,0.20117701160917964,0.02,0.46299999999999997,0.796,9.198,,,,,,0.0,-75.4,5.660388679233963,-86.0,-75.0,-66.0,-1508.0,-100.0,0.0,-100.0,,-100.0,-100.0,,,,,,0.0
0.8081176470588236,0.0366956999451389,0.73,0.804,0.884,13.738000000000001,-0.3442352941176471,0.05376148786868413,-0.41,-0.352,-0.194,-5.852,0.5358823529411765,0.04061567699784258,0.454,0.53,0.606,9.11,,,,,,0.0,-82.70588235294117,2.3705225505423395,-86.0,-84.0,-79.0,-1406.0,,,,,,0.0,,,,,,0.0
0.21306666666666677,0.5577391823743026,-1.3,0.438,0.694,3.1960000000000015,0.26719999999999994,0.8658304067964657,-0.632,0.028,2.392,4.007999999999999,0.6053333333333334,0.4221201514050499,0.262,0.472,1.968,9.08,,,,,,0.0,-74.93333333333334,8.01221290003926,-88.0,-71.0,-68.0,-1124.0,,,,,,0.0,,,,,,0.0
-0.28950000000000004,0.08543740398677854,-0.544,-0.264,-0.158,-5.790000000000001,0.6121000000000001,0.1466321588192713,0.142,0.666,0.742,12.242,0.8039,0.11930377194372359,0.61,0.752,1.1,16.078,,,,,,0.0,-70.5,1.9364916731037085,-72.0,-71.0,-66.0,-1410.0,-102.0,0.0,-102.0,,-102.0,-408.0,,,,,,0.0
-0.8175789473684212,0.5053359815940567,-1.71,-0.798,0.206,-15.534000000000002,0.17094736842105265,0.5279698430068271,-0.514,0.102,1.432,3.248,0.01568421052631578,0.5201276212452781,-0.586,-0.138,1.296,0.2979999999999998,,,,,,0.0,-72.10526315789474,5.087598304671398,-80.0,-73.0,-66.0,-1370.0,,,,,,0.0,,,,,,0.0
-0.19500000000000006,0.5882783354841482,-1.266,-0.20299999999999999,0.646,-3.9000000000000012,0.5170999999999999,0.38248162047345485,-0.13,0.495,1.414,10.341999999999999,0.31989999999999996,0.5157318974040679,-0.656,0.519,0.88,6.397999999999999,,,,,,0.0,-69.9,2.6248809496813372,-76.0,-69.0,-67.0,-1398.0,-102.0,0.0,-102.0,,-102.0,-408.0,,,,,,0.0
0.7087777777777778,0.09462707831597299,0.498,0.687,0.894,12.758000000000001,0.27555555555555555,0.18417329466873258,-0.16,0.32,0.59,4.96,0.7214444444444444,0.14178200098203275,0.528,0.706,1.068,12.986,,,,,,0.0,-69.88888888888889,2.282515398241571,-73.0,-70.0,-67.0,-1258.0,,,,,,0.0,,,,,,0.0
0.6551666666666667,0.01898171634904377,0.624,0.652,0.688,7.862,0.351,0.039593770553796294,0.254,0.354,0.408,4.212,0.7214999999999999,0.021246568350363468,0.674,0.726,0.762,8.658,,,,,,0.0,-82.0,14.165686240583852,-102.0,-73.0,-71.0,-984.0,,,,,,0.0,,,,,,0.0
0.6586666666666667,0.003197221015541816,0.656,0.657,0.664,3.9520000000000004,0.36799999999999994,0.010645812948447552,0.352,0.367,0.382,2.2079999999999997,0.7136666666666667,0.0065743609744386795,0.706,0.714,0.722,4.282,,,,,,0.0,-73.0,0.0,-73.0,-73.0,-73.0,-438.0,,,,,,0.0,,,,,,0.0
0.8285,0.1460596339399311,0.576,0.857,1.036,9.942,0.4013333333333334,0.16486223204711126,0.088,0.396,0.744,4.816000000000001,0.6631666666666667,0.12005126219892713,0.384,0.705,0.864,7.958,,,,,,0.0,-71.33333333333333,1.1055415967851332,-73.0,-71.5,-70.0,-856.0,,,,,,0.0,,,,,,0.0
0.5814000000000001,0.24039559064175867,0.16,0.611,0.904,11.628000000000002,0.5103000000000001,0.4193458119499944,-0.314,0.5920000000000001,1.292,10.206000000000001,0.6069,0.21693452929397847,0.188,0.618,0.912,12.138,,,,,,0.0,-72.7,1.9519221295943134,-78.0,-72.5,-71.0,-1454.0,,,,,,0.0,,,,,,0.0
0.5533,0.04840361556743463,0.432,0.549,0.678,11.066,0.31510000000000005,0.10884571649817,0.046,0.334,0.578,6.3020000000000005,0.8177,0.07653306474981908,0.582,0.817,0.972,16.354,,,,,,0.0,-74.6,1.4966629547095764,-78.0,-74.0,-73.0,-1492.0,,,,,,0.0,,,,,,0.0
0.5443000000000001,0.00982395032560732,0.526,0.544,0.562,10.886000000000003,0.3484,0.012175385004179529,0.326,0.35,0.368,6.968,0.8288,0.012781236246936356,0.796,0.83,0.85,16.576,,,,,,0.0,-74.4,0.66332495807108,-76.0,-74.0,-74.0,-1488.0,,,,,,0.0,,,,,,0.0
0.5043,0.059185386709896565,0.27,0.525,0.546,10.086,0.3297,0.07515390874731666,0.054,0.358,0.4,6.594,0.8465999999999999,0.030614375708153847,0.792,0.848,0.91,16.932,,,,,,0.0,-74.4,0.8,-76.0,-74.0,-74.0,-1488.0,,,,,,0.0,,,,,,0.0
0.6085,0.147807814407764,0.23,0.583,0.864,12.170000000000002,0.7239,0.20891479124274567,0.382,0.6890000000000001,1.11,14.478,-0.10579999999999998,0.3707877560006533,-0.59,-0.237,0.732,-2.1159999999999997,,,,,,0.0,-70.0,2.6457513110645907,-76.0,-70.0,-66.0,-1400.0,-102.0,0.0,-102.0,,-102.0,-408.0,,,,,,0.0
0.6086,0.19382167061502695,0.288,0.607,0.984,12.172,0.32039999999999996,0.18056422680032722,-0.122,0.29800000000000004,0.766,6.4079999999999995,0.6639,0.22407273372724312,0.262,0.729,1.004,13.278,,,,,,0.0,-69.6,1.2806248474865698,-72.0,-69.0,-68.0,-1392.0,,,,,,0.0,,,,,,0.0
0.5501999999999999,0.08440355442752397,0.304,0.574,0.67,11.003999999999998,0.1045,0.0664917288089278,-0.136,0.11599999999999999,0.206,2.09,0.9015000000000001,0.04827369884315891,0.83,0.895,1.086,18.03,,,,,,0.0,-70.5,0.6708203932499369,-72.0,-70.0,-70.0,-1410.0,,,,,,0.0,,,,,,0.0
0.5725999999999999,0.006264183905346324,0.56,0.574,0.582,11.451999999999998,0.1145,0.01587293293629127,0.08,0.11699999999999999,0.14,2.29,0.8834000000000002,0.007158212067269318,0.864,0.884,0.894,17.668000000000003,,,,,,0.0,-70.1,0.30000000000000004,-71.0,-70.0,-70.0,-1402.0,,,,,,0.0,,,,,,0.0
0.5654,0.008558037158133833,0.536,0.568,0.574,11.308,0.12310000000000001,0.010963119993870358,0.104,0.122,0.144,2.462,0.8872000000000002,0.009368030742904303,0.864,0.888,0.908,17.744000000000003,,,,,,0.0,-70.0,0.0,-70.0,-70.0,-70.0,-1400.0,,,,,,0.0,,,,,,0.0
0.5674999999999999,0.0068665857600411166,0.556,0.568,0.58,11.349999999999998,0.11339999999999999,0.010938007131100254,0.092,0.112,0.13,2.268,0.8864000000000001,0.006916646586316239,0.878,0.887,0.902,17.728,,,,,,0.0,-70.0,0.0,-70.0,-70.0,-70.0,-1400.0,,,,,,0.0,,,,,,0.0
0.44460000000000005,0.24877226533518562,-0.032,0.559,0.824,8.892000000000001,0.27559999999999996,0.5041855214105221,-0.376,0.124,1.676,5.512,0.9147000000000001,0.18610564204236257,0.688,0.894,1.648,18.294,,,,,,0.0,-69.8,1.5999999999999999,-72.0,-70.0,-66.0,-1396.0,-100.0,0.0,-100.0,,-100.0,-400.0,,,,,,0.0
-0.009100000000000013,0.35707392791969567,-0.714,-0.089,0.72,-0.18200000000000024,0.9781000000000001,0.33595027905926794,0.12,1.032,1.406,19.562,-0.024299999999999995,0.46393157900707727,-0.824,-0.174,1.038,-0.4859999999999999,,,,,,0.0,-69.1,2.3000000000000003,-72.0,-69.0,-66.0,-1382.0,,,,,,0.0,,,,,,0.0
-0.46670000000000006,0.24748840376874226,-1.086,-0.48,-0.012,-9.334000000000001,0.7029,0.25224390973817384,0.182,0.658,1.212,14.058,0.24559999999999996,0.22935614227659132,-0.258,0.266,0.576,4.911999999999999,,,,,,0.0,-68.9,2.3430749027719964,-72.0,-68.5,-66.0,-1378.0,,,,,,0.0,,,,,,0.0
-0.4081,0.24883767801520734,-0.882,-0.431,0.114,-8.162,0.7233999999999999,0.2989294900139496,0.184,0.763,1.408,14.467999999999998,0.4727,0.303181975057885,0.006,0.485,1.094,9.454,,,,,,0.0,-67.2,2.08806130178211,-70.0,-67.0,-65.0,-1344.0,,,,,,0.0,,,,,,0.0
-0.2985,0.2138390750073522,-0.888,-0.219,-0.04,-5.97,0.8379,0.3238681676238034,0.14,0.891,1.404,16.758,0.36669999999999997,0.24038824846485318,-0.186,0.39,0.728,7.334,,,,,,0.0,-68.5,1.284523257866513,-70.0,-68.0,-67.0,-1370.0,,,,,,0.0,,,,,,0.0
-0.3678,0.2530343059745062,-0.836,-0.261,0.018,-7.356000000000001,0.8950999999999999,0.22547237081292243,0.384,0.8049999999999999,1.464,17.901999999999997,0.5278,0.2348488024240277,0.132,0.548,1.016,10.556000000000001,,,,,,0.0,-66.7,1.4866068747318504,-68.0,-67.0,-64.0,-1334.0,,,,,,0.0,,,,,,0.0
0.36829999999999996,0.3228914833190866,-0.212,0.329,0.796,7.366,0.3391,0.519843620716846,-0.082,0.039,1.47,6.782,0.6462999999999999,0.17198985435193556,0.312,0.734,0.824,12.925999999999998,,,,,,0.0,-74.1,4.437341546466758,-81.0,-74.5,-66.0,-1482.0,-103.0,0.0,-103.0,,-103.0,-412.0,,,,,,0.0
0.6555,0.18187014598333615,0.24,0.712,0.88,13.11,0.09180000000000002,0.10769196813133282,-0.096,0.07,0.402,1.8360000000000003,0.6751,0.08091347230220688,0.464,0.702,0.772,13.502,,,,,,0.0,-74.3,2.7946377224964243,-76.0,-75.0,-66.0,-1486.0,,,,,,0.0,,,,,,0.0
-0.597,0.19759934210416794,-0.842,-0.613,-0.046,-9.552,0.822625,0.36222349368173234,0.352,0.714,1.726,13.162,-0.03425,0.20601441090370354,-0.336,-0.057999999999999996,0.364,-0.548,,,,,,0.0,-74.5,3.570714214271425,-78.0,-75.0,-66.0,-1192.0,,,,,,0.0,,,,,,0.0
-0.9141,0.24436077835855738,-1.674,-0.848,-0.57,-18.282,0.27530000000000004,0.27268243434442196,-0.376,0.265,0.866,5.506000000000001,0.0036000000000000016,0.24653729940923746,-0.3,-0.057999999999999996,0.59,0.07200000000000004,,,,,,0.0,-75.6,2.154065922853802,-79.0,-75.0,-73.0,-1512.0,,,,,,0.0,,,,,,0.0
-0.8654,0.05195806000997342,-1.002,-0.876,-0.772,-17.308,0.3733999999999999,0.0729276353654772,0.22,0.383,0.488,7.467999999999998,0.1319,0.11409027127673947,-0.034,0.107,0.342,2.638,,,,,,0.0,-73.5,3.5,-78.0,-73.5,-69.0,-1470.0,,,,,,0.0,,,,,,0.0
-0.8639000000000001,0.030935254969047858,-0.948,-0.863,-0.808,-17.278000000000002,0.361,0.03731755619008297,0.3,0.363,0.456,7.22,0.2591,0.048064435916798195,0.178,0.265,0.364,5.182,,,,,,0.0,-70.4,1.42828568570857,-72.0,-71.0,-68.0,-1408.0,,,,,,0.0,,,,,,0.0
-0.8754,0.044104875013993634,-0.972,-0.866,-0.808,-17.508,0.35390000000000005,0.06770664664565805,0.142,0.352,0.476,7.078000000000001,0.1792,0.07450476494829038,0.044,0.206,0.31,3.584,,,,,,0.0,-70.3,2.2383029285599396,-72.0,-71.0,-66.0,-1406.0,,,,,,0.0,,,,,,0.0
-0.8066000000000001,0.09161899366397777,-0.976,-0.797,-0.654,-16.132,0.21600000000000003,0.12334666594602385,-0.052,0.21500000000000002,0.424,4.32,0.03800000000000001,0.1599449905436241,-0.164,-0.034,0.306,0.7600000000000002,,,,,,0.0,-70.0,2.569046515733026,-75.0,-69.0,-68.0,-1400.0,,,,,,0.0,,,,,,0.0
-0.9737,0.25873096065218015,-2.068,-0.903,-0.816,-19.474,-0.16599999999999998,0.25181739415695653,-0.9,-0.096,0.092,-3.32,-0.1802,0.12090310169718559,-0.482,-0.179,0.14,-3.604,,,,,,0.0,-72.0,1.6733200530681511,-74.0,-72.0,-68.0,-1440.0,,,,,,0.0,,,,,,0.0
-0.889,0.010285912696499042,-0.906,-0.889,-0.872,-17.78,-0.03480000000000001,0.021339165869358624,-0.082,-0.037000000000000005,0.014,-0.6960000000000002,-0.2217,0.025331995578714288,-0.272,-0.214,-0.194,-4.434,,,,,,0.0,-71.0,0.7745966692414834,-72.0,-71.0,-70.0,-1420.0,,,,,,0.0,,,,,,0.0
-0.8943,0.009742176348229391,-0.92,-0.896,-0.874,-17.886,-0.03280000000000001,0.021075103795711186,-0.078,-0.033,0.014,-0.6560000000000001,-0.21760000000000002,0.015831613941730643,-0.244,-0.22,-0.168,-4.352,,,,,,0.0,-71.9,2.0223748416156684,-77.0,-71.5,-70.0,-1438.0,,,,,,0.0,,,,,,0.0
-0.9243,0.15772162185318792,-1.23,-0.927,-0.712,-18.486,0.0809,0.15191770798692297,-0.19,0.071,0.384,1.6179999999999999,-0.04559999999999999,0.12578489575461754,-0.24,-0.047,0.156,-0.9119999999999998,,,,,,0.0,-70.6,3.7202150475476548,-77.0,-71.0,-66.0,-1412.0,,,,,,0.0,,,,,,0.0
-0.8450000000000001,0.04974937185533099,-0.904,-0.857,-0.676,-16.900000000000002,0.36490000000000006,0.02417002275547129,0.306,0.37,0.414,7.298000000000001,0.2772,0.026308933843848557,0.214,0.277,0.32,5.544,,,,,,0.0,-73.2,1.7204650534085253,-77.0,-72.0,-72.0,-1464.0,,,,,,0.0,,,,,,0.0
-0.8543000000000001,0.009513674369033248,-0.868,-0.856,-0.832,-17.086000000000002,0.35340000000000005,0.013799999999999996,0.312,0.356,0.37,7.0680000000000005,0.27870000000000006,0.014903355326905402,0.248,0.285,0.302,5.574000000000001,,,,,,0.0,-71.5,1.02469507659596,-73.0,-71.0,-70.0,-1430.0,,,,,,0.0,,,,,,0.0
-0.8601000000000001,0.011233432244866223,-0.882,-0.861,-0.84,-17.202,0.34819999999999995,0.01148738438461949,0.326,0.352,0.366,6.9639999999999995,0.27,0.01264911064067351,0.248,0.27,0.3,5.4,,,,,,0.0,-69.7,1.1,-71.0,-70.0,-68.0,-1394.0,,,,,,0.0,,,,,,0.0
-0.8599,0.015880491176282943,-0.884,-0.861,-0.818,-17.198,0.35069999999999996,0.008746999485537874,0.336,0.35,0.368,7.013999999999999,0.2754,0.014242190842703933,0.248,0.271,0.302,5.508,,,,,,0.0,-68.6,1.42828568570857,-71.0,-69.0,-67.0,-1372.0,,,,,,0.0,,,,,,0.0
-0.8667000000000001,0.02583234406707995,-0.936,-0.866,-0.808,-17.334000000000003,0.31799999999999995,0.0376881944380465,0.236,0.337,0.352,6.359999999999999,0.24340000000000006,0.028207091306974574,0.19,0.244,0.28,4.868000000000001,,,,,,0.0,-69.4,1.1135528725660042,-71.0,-69.0,-67.0,-1388.0,,,,,,0.0,,,,,,0.0
-0.8671000000000001,0.21416766796134287,-1.298,-0.877,-0.53,-17.342000000000002,0.3252,0.2581491042014285,-0.112,0.23399999999999999,0.832,6.504,0.26670000000000005,0.08172215121984981,0.128,0.28400000000000003,0.392,5.334000000000001,,,,,,0.0,-70.6,3.583294573433783,-77.0,-68.5,-67.0,-1412.0,,,,,,0.0,,,,,,0.0
-0.7477,0.15330789281703663,-0.954,-0.782,-0.498,-14.954,0.549,0.0647286644385623,0.418,0.554,0.688,10.98,0.1257,0.20874029318749174,-0.266,0.138,0.422,2.5140000000000002,,,,,,0.0,-71.4,1.42828568570857,-74.0,-71.0,-69.0,-1428.0,,,,,,0.0,,,,,,0.0
-0.8558,0.030192051934242577,-0.936,-0.858,-0.776,-17.116,0.36210000000000003,0.030255412738880296,0.322,0.358,0.438,7.242000000000001,0.2802,0.04885857140768649,0.216,0.274,0.398,5.604,,,,,,0.0,-72.1,1.9209372712298547,-74.0,-72.5,-70.0,-1442.0,,,,,,0.0,,,,,,0.0
-0.8625999999999999,0.013146862743635848,-0.888,-0.866,-0.83,-17.252,0.34909999999999997,0.015052906696050427,0.322,0.348,0.384,6.981999999999999,0.2694,0.013222707740852473,0.248,0.267,0.3,5.388,,,,,,0.0,-73.1,0.7,-74.0,-73.0,-72.0,-1462.0,,,,,,0.0,,,,,,0.0
-0.6877,0.2324704497350147,-0.884,-0.83,-0.096,-13.754,0.5488999999999999,0.22491640669368695,0.29,0.491,0.914,10.977999999999998,0.20379999999999998,0.1317693439309766,-0.158,0.226,0.384,4.076,,,,,,0.0,-71.8,1.6613247725836147,-74.0,-72.0,-70.0,-1436.0,,,,,,0.0,,,,,,0.0
-0.7339,0.5796376368042365,-2.0,-0.669,0.51,-14.677999999999999,0.5835,0.3729160093104075,0.108,0.479,1.628,11.67,0.1703,0.24843049329742112,-0.542,0.223,0.544,3.406,,,,,,0.0,-67.6,1.42828568570857,-71.0,-67.0,-66.0,-1352.0,-102.0,0.0,-102.0,,-102.0,-204.0,,,,,,0.0
-0.8709999999999999,0.08027079169909812,-1.028,-0.87,-0.666,-17.419999999999998,0.3953,0.12501083953001838,0.11,0.405,0.582,7.906,0.22749999999999998,0.07513953686309226,0.08,0.226,0.416,4.55,,,,,,0.0,-74.7,2.3259406699226015,-77.0,-75.5,-69.0,-1494.0,-102.0,0.0,-102.0,,-102.0,-204.0,,,,,,0.0
-0.8533,0.03347401977653717,-0.916,-0.849,-0.794,-17.066,0.3599,0.037419112763399404,0.272,0.367,0.414,7.198,0.2970999999999999,0.05810499117976011,0.194,0.305,0.408,5.941999999999998,,,,,,0.0,-71.0,1.9493588689617927,-76.0,-70.5,-69.0,-1420.0,,,,,,0.0,,,,,,0.0
-0.8523,0.031605537489497,-0.904,-0.855,-0.776,-17.046,0.31320000000000003,0.12242287367971723,-0.122,0.351,0.472,6.264,0.3084,0.06807525247841538,0.23,0.29000000000000004,0.488,6.168,,,,,,0.0,-70.6,1.0198039027185568,-72.0,-71.0,-69.0,-1412.0,,,,,,0.0,,,,,,0.0
-0.8789,0.031865184763311856,-0.936,-0.872,-0.82,-17.578,0.31510000000000005,0.08409869202312245,0.206,0.301,0.594,6.302000000000001,0.3056,0.0884954236104896,0.142,0.311,0.576,6.112,,,,,,0.0,-70.4,1.1135528725660042,-72.0,-70.0,-68.0,-1408.0,,,,,,0.0,,,,,,0.0
-0.7746999999999999,0.14725797092178064,-1.202,-0.734,-0.616,-15.494,0.3534,0.09809403651598807,0.19,0.349,0.574,7.068,0.16910000000000003,0.18234634627543267,-0.064,0.103,0.52,3.3820000000000006,,,,,,0.0,-68.7,2.0024984394500787,-72.0,-68.0,-67.0,-1374.0,,,,,,0.0,,,,,,0.0
-0.5211,0.41336012144376,-1.252,-0.584,0.086,-10.422,0.6883999999999999,0.3525198434131049,0.224,0.6579999999999999,1.66,13.767999999999999,0.48500000000000004,0.33275847096655553,0.032,0.404,1.228,9.700000000000001,,,,,,0.0,-68.9,0.8306623862918073,-71.0,-69.0,-68.0,-1378.0,,,,,,0.0,,,,,,0.0
-0.19870000000000002,0.11376339481573147,-0.45,-0.192,0.12,-3.974,0.7385999999999999,0.10291763697248396,0.504,0.774,0.864,14.771999999999998,0.6578999999999999,0.08209135155422889,0.568,0.634,0.88,13.158,,,,,,0.0,-67.2,0.7483314773547882,-68.0,-67.0,-66.0,-1344.0,,,,,,0.0,,,,,,0.0
-0.17326315789473684,0.011647643110419412,-0.192,-0.174,-0.154,-3.292,0.7861052631578948,0.01817428703254339,0.722,0.792,0.802,14.936,0.6093684210526316,0.013219644578054414,0.582,0.608,0.63,11.578,,,,,,0.0,-68.0,0.0,-68.0,-68.0,-68.0,-1292.0,,,,,,0.0,,,,,,0.0
-0.3355,0.38774314952040095,-1.64,-0.187,0.238,-6.71,0.6397,0.3661727870828197,-0.34,0.799,0.99,12.794,0.5719000000000001,0.24748614102611888,0.162,0.575,1.062,11.438,,,,,,0.0,-67.3,2.3895606290697042,-70.0,-68.0,-64.0,-1346.0,,,,,,0.0,,,,,,0.0
-0.8637,0.537544891148637,-1.722,-0.9430000000000001,0.208,-17.274,0.2988,0.9025498102597994,-1.582,0.25,3.398,5.976,-0.2607,0.2868172065968149,-1.004,-0.23,0.2,-5.2139999999999995,,,,,,0.0,-71.0,1.4142135623730951,-73.0,-71.0,-69.0,-1420.0,,,,,,0.0,,,,,,0.0
-0.6497999999999999,0.15624071172392937,-0.928,-0.669,-0.292,-12.995999999999999,0.5715999999999999,0.22823373983703638,0.074,0.577,0.996,11.431999999999999,-0.1363,0.1444289098484095,-0.416,-0.158,0.12,-2.726,,,,,,0.0,-73.05,1.7168284713389395,-75.0,-74.0,-70.0,-1461.0,,,,,,0.0,,,,,,0.0
-0.08375,0.3816234236783691,-0.516,-0.213,0.7,-1.34,0.847375,0.32932789036915777,0.152,0.81,1.56,13.558,0.022999999999999993,0.38156257678131905,-0.52,-0.040999999999999995,0.684,0.3679999999999999,,,,,,0.0,-69.5625,1.6571341979453564,-71.0,-70.0,-67.0,-1113.0,-102.0,0.0,-102.0,,-102.0,-408.0,,,,,,0.0
0.6177,0.19692259900783354,0.166,0.688,0.912,12.354000000000001,0.3665999999999999,0.10870344980726233,0.006,0.383,0.544,7.331999999999999,0.6966,0.09680103305233885,0.536,0.664,0.988,13.932,,,,,,0.0,-69.95,0.9205976319760985,-71.0,-70.0,-68.0,-1399.0,,,,,,0.0,,,,,,0.0
0.7030000000000001,0.30810160661703795,-0.098,0.687,1.46,14.06,0.45699999999999996,0.2289737976275888,0.062,0.422,1.166,9.139999999999999,0.5102,0.2739634282162493,-0.316,0.634,0.736,10.204,,,,,,0.0,-69.4,1.9078784028338915,-72.0,-70.0,-67.0,-1388.0,,,,,,0.0,,,,,,0.0
0.7474,0.14894173357390467,0.53,0.732,1.08,14.947999999999999,0.433,0.21055213131193898,0.048,0.402,0.806,8.66,0.5639,0.22015492272488482,0.108,0.626,0.996,11.277999999999999,,,,,,0.0,-69.95,2.71062723368596,-75.0,-69.0,-67.0,-1399.0,,,,,,0.0,,,,,,0.0
0.6482,0.08459290750411647,0.412,0.648,0.796,12.964,0.42779999999999996,0.1641400621420621,-0.142,0.438,0.67,8.556,0.6854999999999999,0.1489051711660814,0.496,0.653,1.176,13.709999999999997,,,,,,0.0,-71.6,2.2,-74.0,-72.0,-68.0,-1432.0,,,,,,0.0,,,,,,0.0
0.6052,0.021876014262200514,0.558,0.605,0.654,12.104,0.4406999999999999,0.034573255559753116,0.368,0.439,0.494,8.813999999999998,0.7152999999999998,0.03389557493243034,0.646,0.706,0.798,14.305999999999997,,,,,,0.0,-73.8,0.39999999999999997,-74.0,-74.0,-73.0,-1476.0,,,,,,0.0,,,,,,0.0
0.5942000000000001,0.011115754585272196,0.562,0.596,0.614,11.884,0.44279999999999997,0.00874985714169095,0.422,0.446,0.454,8.856,0.7228999999999999,0.011566762727747133,0.696,0.722,0.748,14.457999999999998,,,,,,0.0,-74.0,0.0,-74.0,-74.0,-74.0,-1480.0,,,,,,0.0,,,,,,0.0
0.5988,0.00893084542470645,0.582,0.599,0.616,11.975999999999999,0.42980000000000007,0.027740944468420684,0.316,0.434,0.456,8.596000000000002,0.7302000000000001,0.040879823874375984,0.696,0.719,0.902,14.604000000000001,,,,,,0.0,-74.0,1.0,-78.0,-74.0,-73.0,-1480.0,,,,,,0.0,,,,,,0.0
0.7165000000000001,0.20914671883632313,0.348,0.747,1.182,14.330000000000002,0.5605,0.23710662158615475,0.096,0.571,0.952,11.209999999999999,0.00030000000000000236,0.320755529960124,-0.348,-0.075,0.988,0.006000000000000047,,,,,,0.0,-72.8,2.3579652245103193,-78.0,-72.0,-71.0,-1456.0,,,,,,0.0,,,,,,0.0
0.6216999999999999,0.2967492375727358,0.27,0.534,1.166,12.434,-0.40469999999999995,0.4692454688113674,-1.192,-0.521,0.754,-8.094,0.39870000000000005,0.2517437387503411,-0.142,0.441,0.744,7.974000000000001,,,,,,0.0,-68.45,2.376446927663229,-74.0,-68.0,-67.0,-1369.0,-102.0,0.0,-102.0,,-102.0,-408.0,,,,,,0.0
0.49659999999999993,0.090798898671735,0.372,0.484,0.664,9.931999999999999,-0.7662,0.12624563358785917,-1.02,-0.757,-0.538,-15.324,0.4354,0.09222385808455424,0.278,0.479,0.55,8.708,,,,,,0.0,-68.05,0.5894913061275798,-69.0,-68.0,-67.0,-1361.0,,,,,,0.0,,,,,,0.0
0.4053000000000001,0.04034984510503107,0.348,0.399,0.486,8.106000000000002,-0.8027,0.09513206609760978,-1.128,-0.781,-0.718,-16.054,0.5037,0.05917186831594892,0.352,0.513,0.6,10.074000000000002,,,,,,0.0,-67.85,0.6538348415311009,-68.0,-68.0,-65.0,-1357.0,,,,,,0.0,,,,,,0.0
0.5820000000000001,0.12058192235986287,0.318,0.63,0.704,11.640000000000002,0.008699999999999989,0.3965487485795409,-1.022,0.123,0.476,0.17399999999999977,0.7437000000000001,0.21466185036004887,0.246,0.806,1.062,14.874000000000002,,,,,,0.0,-71.0,2.6832815729997477,-73.0,-71.0,-65.0,-1420.0,,,,,,0.0,,,,,,0.0
0.30449999999999994,0.4006169616978293,-0.65,0.585,0.672,6.089999999999999,0.4237,0.49511464328981425,-0.05,0.20400000000000001,1.56,8.474,0.6856,0.34922691763379293,-0.228,0.794,1.136,13.712,,,,,,0.0,-73.9,1.4106735979665883,-79.0,-73.0,-73.0,-1478.0,,,,,,0.0,,,,,,0.0
-0.8728,0.5930053625389909,-1.92,-0.809,0.272,-17.456,0.2889,0.4638600974431839,-0.4,0.215,1.56,5.778,0.4579,0.32475496916906443,-0.192,0.4,1.18,9.158,,,,,,0.0,-73.85,3.9404948927767935,-79.0,-75.0,-69.0,-1477.0,,,,,,0.0,,,,,,0.0
-0.7606000000000002,0.6885114668616639,-2.064,-0.865,0.702,-15.212000000000003,0.1941,0.2639730857492862,-0.154,0.14500000000000002,0.94,3.8819999999999997,0.35089999999999993,0.40122536061420644,-0.544,0.448,1.046,7.017999999999999,,,,,,0.0,-70.45,0.804673846971554,-72.0,-70.0,-69.0,-1409.0,,,,,,0.0,,,,,,0.0
-0.573,0.24690767505284236,-1.14,-0.586,-0.062,-11.459999999999999,0.34869999999999995,0.5560141275183572,-0.296,0.196,2.046,6.973999999999999,0.761,0.359197160345123,0.334,0.634,2.096,15.22,,,,,,0.0,-67.35,2.3510635891017495,-70.0,-69.0,-64.0,-1347.0,,,,,,0.0,,,,,,0.0
-0.5214,0.043681117201829905,-0.626,-0.51,-0.454,-10.427999999999999,0.6201,0.049608366229901196,0.432,0.623,0.67,12.402,0.6154000000000001,0.04362155430518267,0.552,0.609,0.768,12.308000000000002,,,,,,0.0,-64.85,0.3570714214271425,-65.0,-65.0,-64.0,-1297.0,,,,,,0.0,,,,,,0.0
-0.49349999999999994,0.05447889499613588,-0.644,-0.472,-0.444,-9.87,0.6464000000000001,0.10100811848559502,0.462,0.641,1.042,12.928000000000003,0.6645,0.06384316721466754,0.588,0.644,0.886,13.29,,,,,,0.0,-65.6,1.1135528725660042,-69.0,-65.0,-65.0,-1312.0,,,,,,0.0,,,,,,0.0
-0.7426,0.4919939430521478,-1.808,-0.64,0.016,-14.852,0.3829000000000001,0.2584294681339572,-0.168,0.423,0.934,7.658000000000001,0.4690999999999999,0.1907180903847351,0.2,0.484,0.798,9.381999999999998,,,,,,0.0,-66.85,4.198511641046145,-72.0,-69.0,-60.0,-1337.0,,,,,,0.0,,,,,,0.0
-0.44860000000000005,0.13627193401430832,-0.718,-0.46699999999999997,-0.144,-8.972000000000001,0.7892,0.3036032937897743,0.326,0.708,1.52,15.784,0.32180000000000003,0.18082577249938683,0.048,0.353,0.648,6.436000000000001,,,,,,0.0,-66.65,2.4550967394381837,-70.0,-66.0,-62.0,-1333.0,-101.0,0.0,-101.0,,-101.0,-404.0,,,,,,0.0
0.5663,0.2311296389474963,0.056,0.649,0.846,11.326,0.20870000000000002,0.34741806228231714,-0.114,0.09,1.246,4.174,0.607,0.1407131834619628,0.354,0.672,0.792,12.139999999999999,,,,,,0.0,-74.35,3.259984662540608,-77.0,-76.0,-67.0,-1487.0,,,,,,0.0,,,,,,0.0
-0.47050000000000003,0.7743358121642057,-1.816,-0.752,0.716,-9.41,0.4378000000000001,0.4180721947223948,-0.238,0.45999999999999996,1.166,8.756000000000002,0.48900000000000005,0.1641212966071131,0.262,0.45899999999999996,0.76,9.780000000000001,,,,,,0.0,-68.75,3.7265936188428164,-74.0,-70.0,-64.0,-1375.0,,,,,,0.0,,,,,,0.0
-0.8773,0.04383275031297943,-0.964,-0.858,-0.804,-17.546,0.29890000000000005,0.06346172074565895,0.158,0.333,0.358,5.978000000000001,0.30169999999999997,0.024382575745806673,0.262,0.301,0.352,6.034,,,,,,0.0,-68.9,0.6244997998398398,-71.0,-69.0,-68.0,-1378.0,,,,,,0.0,,,,,,0.0
-0.8612000000000002,0.00913016976841067,-0.888,-0.86,-0.848,-17.224000000000004,0.332,0.011454256850621075,0.308,0.332,0.35,6.640000000000001,0.3010999999999999,0.009746281342132498,0.278,0.3,0.318,6.0219999999999985,,,,,,0.0,-70.75,0.4330127018922193,-71.0,-71.0,-70.0,-1415.0,,,,,,0.0,,,,,,0.0
-0.8568,0.005706137047074847,-0.866,-0.858,-0.846,-17.136,0.3358,0.008364209466530586,0.312,0.336,0.35,6.715999999999999,0.30399999999999994,0.00742967024840269,0.29,0.304,0.318,6.079999999999999,,,,,,0.0,-70.6,0.4898979485566356,-71.0,-71.0,-70.0,-1412.0,,,,,,0.0,,,,,,0.0
-0.8760999999999999,0.06664975618860135,-1.108,-0.857,-0.786,-17.522,0.34869999999999995,0.0207680042372877,0.294,0.35,0.376,6.973999999999999,0.2041,0.08021340287009397,0.07,0.21200000000000002,0.312,4.082,,,,,,0.0,-71.55,1.4991664350564948,-74.0,-71.0,-70.0,-1431.0,,,,,,0.0,,,,,,0.0
-0.8783,0.1268326062178019,-1.194,-0.822,-0.72,-17.566,0.053100000000000015,0.2576544003117354,-0.872,0.134,0.254,1.0620000000000003,0.05989999999999999,0.2811117037762747,-0.686,0.096,0.4,1.1979999999999997,,,,,,0.0,-71.7,2.0760539492026697,-75.0,-71.0,-67.0,-1434.0,,,,,,0.0,,,,,,0.0
-0.8930000000000001,0.06161006411293531,-1.05,-0.886,-0.77,-17.860000000000003,0.10500000000000001,0.12640806936267954,-0.346,0.11699999999999999,0.376,2.1,-0.24909999999999996,0.11330397168678598,-0.644,-0.208,-0.146,-4.981999999999999,,,,,,0.0,-67.9,0.7681145747868607,-69.0,-68.0,-67.0,-1358.0,,,,,,0.0,,,,,,0.0
-0.8863000000000001,0.011493911431710278,-0.906,-0.889,-0.862,-17.726000000000003,0.11309999999999998,0.015575300960174093,0.086,0.111,0.142,2.2619999999999996,-0.20000000000000004,0.015709869509324386,-0.232,-0.2,-0.168,-4.000000000000001,,,,,,0.0,-68.6,0.4898979485566356,-69.0,-69.0,-68.0,-1372.0,,,,,,0.0,,,,,,0.0
-0.8911999999999999,0.008255906976220124,-0.912,-0.891,-0.878,-17.823999999999998,0.1157,0.008883130078975543,0.096,0.11599999999999999,0.134,2.314,-0.19690000000000002,0.015930787802240037,-0.228,-0.2,-0.158,-3.9380000000000006,,,,,,0.0,-69.2,0.4,-70.0,-69.0,-69.0,-1384.0,,,,,,0.0,,,,,,0.0
-0.8957,0.020359518658357327,-0.946,-0.898,-0.858,-17.914,0.12169999999999999,0.015208878985645196,0.088,0.119,0.158,2.4339999999999997,-0.1908,0.028957900476381228,-0.256,-0.189,-0.128,-3.816,,,,,,0.0,-69.5,2.179449471770337,-79.0,-69.0,-69.0,-1390.0,,,,,,0.0,,,,,,0.0
-0.9118947368421053,0.1234136795014582,-1.124,-0.866,-0.736,-17.326,0.14589473684210524,0.12116187290556125,-0.088,0.14,0.456,2.772,-0.03673684210526316,0.12065821328087435,-0.266,-0.026,0.152,-0.6980000000000001,,,,,,0.0,-71.84210526315789,5.1632625130234615,-79.0,-69.0,-66.0,-1365.0,,,,,,0.0,,,,,,0.0
-0.8608235294117647,0.03222026270407682,-0.912,-0.862,-0.794,-14.633999999999999,0.3470588235294118,0.03703173613225361,0.24,0.354,0.408,5.9,0.29141176470588237,0.040221531874079314,0.216,0.298,0.344,4.954000000000001,,,,,,0.0,-73.41176470588235,1.647058823529412,-76.0,-72.0,-72.0,-1248.0,,,,,,0.0,,,,,,0.0
-0.8530000000000001,0.006797058187186577,-0.866,-0.852,-0.84,-17.060000000000002,0.3476,0.011943198901466882,0.312,0.35,0.364,6.952,0.291,0.019763602910400725,0.254,0.287,0.332,5.819999999999999,,,,,,0.0,-72.4,0.4898979485566356,-73.0,-72.0,-72.0,-1448.0,,,,,,0.0,,,,,,0.0
-0.8589,0.0064645185435576,-0.868,-0.858,-0.846,-17.178,0.3371,0.009848350115628492,0.318,0.334,0.358,6.742,0.294,0.009273618495495704,0.278,0.294,0.31,5.88,,,,,,0.0,-72.0,0.0,-72.0,-72.0,-72.0,-1440.0,,,,,,0.0,,,,,,0.0
-0.8574999999999999,0.007506663706334532,-0.872,-0.857,-0.844,-17.15,0.3385,0.012359207094308261,0.322,0.337,0.364,6.7700000000000005,0.2886000000000001,0.018133946068079054,0.252,0.285,0.318,5.772000000000001,,,,,,0.0,-71.85,0.4769696007084729,-73.0,-72.0,-71.0,-1437.0,,,,,,0.0,,,,,,0.0
-0.8076000000000001,0.11712659817479545,-1.0,-0.848,-0.552,-16.152,0.3115,0.08707439348051756,0.184,0.311,0.502,6.23,0.1709,0.1248558769141445,-0.142,0.223,0.3,3.4179999999999997,,,,,,0.0,-72.3,3.1480152477394387,-78.0,-72.0,-69.0,-1446.0,,,,,,0.0,,,,,,0.0
-0.7915,0.31253087847443173,-1.476,-0.799,-0.142,-15.83,0.6586,0.21101004715415805,0.344,0.616,1.136,13.171999999999999,0.22999999999999998,0.09750692283115082,0.056,0.203,0.424,4.6,,,,,,0.0,-68.7,1.9773719933285192,-71.0,-69.0,-66.0,-1374.0,,,,,,0.0,,,,,,0.0
-0.8520999999999999,0.06165865713750177,-0.958,-0.847,-0.746,-17.041999999999998,0.3402,0.06574161543497391,0.184,0.345,0.492,6.804,0.23760000000000003,0.02908332855778376,0.192,0.224,0.294,4.752000000000001,,,,,,0.0,-71.7,2.12367605815953,-75.0,-72.0,-69.0,-1434.0,,,,,,0.0,,,,,,0.0
-0.8568,0.023994999479058133,-0.898,-0.863,-0.77,-17.136,0.33360000000000006,0.023728463919942218,0.274,0.334,0.384,6.6720000000000015,0.2986,0.03166133288413486,0.258,0.295,0.38,5.9719999999999995,,,,,,0.0,-75.0,2.1908902300206643,-79.0,-75.0,-73.0,-1500.0,,,,,,0.0,,,,,,0.0
-0.7663,0.16854468250289,-0.96,-0.84,-0.346,-15.325999999999999,0.4471,0.1793326239143341,0.28,0.383,0.972,8.942,0.1944,0.10629506103295676,0.006,0.24,0.342,3.888,,,,,,0.0,-70.9,3.491418050019218,-75.0,-71.0,-67.0,-1418.0,,,,,,0.0,,,,,,0.0
-0.9097000000000002,0.43265333698008157,-1.73,-0.896,-0.09,-18.194000000000003,0.4365,0.2880506031932584,0.094,0.36,0.934,8.73,0.0916,0.19473941563022112,-0.276,0.059,0.594,1.832,,,,,,0.0,-68.65,3.650684867254362,-73.0,-70.0,-63.0,-1373.0,,,,,,0.0,,,,,,0.0
-0.8526,0.1233273692251643,-1.16,-0.863,-0.56,-17.052,0.3731,0.08668442766725751,0.232,0.367,0.576,7.462,0.2184,0.03817643252060098,0.152,0.221,0.3,4.368,,,,,,0.0,-72.3,2.2605309110914633,-75.0,-71.0,-70.0,-1446.0,,,,,,0.0,,,,,,0.0
-0.8568000000000001,0.05848897331976344,-0.952,-0.849,-0.752,-17.136000000000003,0.3262999999999999,0.032007967758044244,0.274,0.335,0.374,6.525999999999999,0.31799999999999995,0.049795582133357975,0.216,0.312,0.396,6.3599999999999985,,,,,,0.0,-69.55,2.4181604578687494,-75.0,-70.0,-66.0,-1391.0,,,,,,0.0,,,,,,0.0
-0.8594000000000002,0.017298554852934987,-0.894,-0.862,-0.82,-17.188000000000002,0.3484999999999999,0.04061957656106227,0.264,0.344,0.44,6.969999999999999,0.29490000000000005,0.036859055875049215,0.212,0.302,0.344,5.8980000000000015,,,,,,0.0,-76.05,2.6734808770589704,-79.0,-75.0,-72.0,-1521.0,,,,,,0.0,,,,,,0.0
-0.8825,0.02591428177665745,-0.942,-0.87,-0.858,-17.65,0.3153,0.045242789480755934,0.22,0.324,0.376,6.306,0.24970000000000003,0.059673360890769335,0.136,0.24,0.384,4.994000000000001,,,,,,0.0,-74.0,3.03315017762062,-84.0,-73.0,-71.0,-1480.0,,,,,,0.0,,,,,,0.0
-0.8636842105263158,0.11733400486670924,-1.106,-0.846,-0.724,-16.41,0.3693684210526315,0.13285853597611805,0.198,0.342,0.744,7.017999999999999,0.2525263157894737,0.15393757053841242,-0.148,0.29,0.448,4.798000000000001,,,,,,0.0,-75.15789473684211,6.368203563054389,-84.0,-79.0,-67.0,-1428.0,,,,,,0.0,,,,,,0.0
-0.7506999999999999,0.27806349994200963,-1.38,-0.703,-0.37,-15.014,0.4937,0.2453318364990569,0.036,0.519,0.974,9.874,0.2778,0.36577528620725597,-0.148,0.16899999999999998,1.232,5.556,,,,,,0.0,-69.8,2.3151673805580453,-73.0,-70.0,-66.0,-1396.0,,,,,,0.0,,,,,,0.0
-0.23690000000000003,0.09737448331056756,-0.45,-0.23299999999999998,-0.114,-4.738,0.6039,0.14779780106618637,0.414,0.591,0.936,12.078,0.7845,0.12256243306984405,0.48,0.791,1.008,15.69,,,,,,0.0,-70.4,1.0198039027185568,-72.0,-70.0,-69.0,-1408.0,,,,,,0.0,,,,,,0.0
-0.24230000000000002,0.012120643547270915,-0.274,-0.242,-0.218,-4.846,0.6211,0.04453077587466898,0.468,0.634,0.672,12.422,0.7853999999999999,0.02988042837711667,0.75,0.776,0.876,15.707999999999998,,,,,,0.0,-71.8,0.39999999999999997,-72.0,-72.0,-71.0,-1436.0,,,,,,0.0,,,,,,0.0
-0.2405,0.005399073994677232,-0.254,-0.24,-0.232,-4.81,0.643,0.008729261137118086,0.616,0.644,0.654,12.86,0.7729999999999999,0.009989994994993751,0.744,0.774,0.792,15.459999999999997,,,,,,0.0,-72.0,0.0,-72.0,-72.0,-72.0,-1440.0,,,,,,0.0,,,,,,0.0
-0.36375,0.24421903590834193,-0.928,-0.28200000000000003,0.018,-5.82,0.519625,0.1447691589220577,0.152,0.56,0.674,8.314,0.7642499999999999,0.2424024288244654,0.294,0.751,1.188,12.227999999999998,,,,,,0.0,-69.25,2.277608394786075,-72.0,-69.0,-67.0,-1108.0,,,,,,0.0,,,,,,0.0
-0.9045000000000002,0.3546693530600015,-1.546,-0.908,-0.178,-18.090000000000003,0.13679999999999998,0.3605581229150163,-0.488,0.105,0.824,2.7359999999999998,-0.1528,0.38320041753630696,-0.93,-0.185,0.466,-3.056,,,,,,0.0,-71.0,0.0,-71.0,-71.0,-71.0,-1420.0,,,,,,0.0,,,,,,0.0
-0.04629999999999999,0.5911515118816834,-1.16,-0.043,0.792,-0.9259999999999997,0.5561999999999999,0.46624409915837006,-0.098,0.529,1.606,11.123999999999999,0.3032,0.6108307130457669,-1.036,0.475,1.104,6.064000000000001,,,,,,0.0,-70.8,2.2271057451320093,-75.0,-70.0,-69.0,-1416.0,,,,,,0.0,,,,,,0.0
0.5633999999999999,0.12428853527176188,0.338,0.608,0.764,11.267999999999999,0.2594,0.22024450049887742,-0.264,0.311,0.624,5.188000000000001,0.8540999999999999,0.060681051408162004,0.712,0.85,0.972,17.081999999999997,,,,,,0.0,-71.6,1.0198039027185568,-73.0,-72.0,-70.0,-1432.0,,,,,,0.0,,,,,,0.0
0.5694,0.016770211686201186,0.542,0.567,0.598,11.388,0.3587,0.043447784753655745,0.29,0.359,0.496,7.174,0.7955,0.015985931314752965,0.76,0.797,0.828,15.91,,,,,,0.0,-72.0,0.8944271909999159,-73.0,-72.0,-71.0,-1440.0,,,,,,0.0,,,,,,0.0
0.5722,0.011711532777565859,0.55,0.57,0.594,11.444,0.3755,0.010786565718522287,0.358,0.376,0.398,7.51,0.7932,0.01177115117564974,0.774,0.795,0.812,15.864,,,,,,0.0,-72.6,0.4898979485566356,-73.0,-73.0,-72.0,-1452.0,,,,,,0.0,,,,,,0.0
0.5701,0.010999545445153604,0.542,0.572,0.59,11.402000000000001,0.3773000000000001,0.019751202495038124,0.354,0.374,0.454,7.546000000000001,0.7865,0.01243985530462474,0.758,0.79,0.804,15.73,,,,,,0.0,-72.2,0.39999999999999997,-73.0,-72.0,-72.0,-1444.0,,,,,,0.0,,,,,,0.0
0.5778999999999999,0.31061517992525733,-0.274,0.58,1.136,11.557999999999996,0.4633,0.19013077078684554,0.216,0.39,0.956,9.266,0.6265,0.22382392633496537,0.134,0.758,0.88,12.53,,,,,,0.0,-72.0,0.8944271909999159,-73.0,-72.0,-71.0,-1440.0,,,,,,0.0,,,,,,0.0
0.5961000000000001,0.21955088248513147,0.126,0.634,1.046,11.922,0.526,0.3312745085272938,-0.162,0.546,1.318,10.52,0.5697000000000001,0.18220568048225058,0.31,0.5589999999999999,0.96,11.394000000000002,,,,,,0.0,-73.0,2.0976176963403033,-75.0,-74.0,-69.0,-1460.0,,,,,,0.0,,,,,,0.0
0.5701,0.09172671366619431,0.464,0.558,0.89,11.402000000000001,0.4201999999999999,0.13119893292248988,0.27,0.365,0.67,8.403999999999998,0.7643,0.11497177914601478,0.582,0.763,0.992,15.286,,,,,,0.0,-70.4,2.0591260281974,-74.0,-70.0,-68.0,-1408.0,,,,,,0.0,,,,,,0.0
0.528,0.010917875251164956,0.51,0.528,0.542,10.56,0.3887,0.011597844627343484,0.366,0.386,0.418,7.774,0.8192999999999999,0.012526372180324171,0.792,0.824,0.838,16.386,,,,,,0.0,-70.2,0.39999999999999997,-71.0,-70.0,-70.0,-1404.0,,,,,,0.0,,,,,,0.0
0.5392,0.14540068775628262,0.38,0.51,1.15,10.784,0.38389999999999996,0.16151343597360562,0.028,0.376,0.812,7.677999999999999,0.7342000000000001,0.2208944544346915,0.054,0.831,0.866,14.684000000000001,,,,,,0.0,-71.0,1.5491933384829668,-74.0,-70.0,-70.0,-1420.0,,,,,,0.0,,,,,,0.0
0.9381,0.14520120522915778,0.658,0.978,1.174,18.762,0.392,0.2697458062695322,-0.082,0.37,1.014,7.84,0.3011,0.22718316398888366,-0.378,0.33799999999999997,0.748,6.021999999999999,,,,,,0.0,-70.6,0.7999999999999999,-72.0,-70.0,-70.0,-1412.0,,,,,,0.0,,,,,,0.0
0.618,0.13855396060741101,0.238,0.66,0.882,12.36,0.252,0.06706116610975385,0.064,0.248,0.368,5.04,0.7459,0.12057441685531801,0.496,0.782,0.978,14.918,,,,,,0.0,-73.4,2.4166091947189146,-76.0,-75.0,-70.0,-1468.0,,,,,,0.0,,,,,,0.0
0.6318,0.02378991382918402,0.594,0.634,0.678,12.636000000000001,0.27819999999999995,0.03320180717973044,0.24,0.269,0.348,5.563999999999999,0.7859,0.02081802103947444,0.738,0.794,0.816,15.718000000000002,,,,,,0.0,-75.0,0.8944271909999159,-76.0,-75.0,-74.0,-1500.0,,,,,,0.0,,,,,,0.0
0.6336,0.027961401967712574,0.558,0.637,0.686,12.672,0.2996,0.08334890521176627,0.14,0.309,0.486,5.992,0.7712999999999999,0.030530476576693017,0.704,0.772,0.834,15.425999999999998,,,,,,0.0,-75.8,0.4,-76.0,-76.0,-75.0,-1516.0,,,,,,0.0,,,,,,0.0
0.6270999999999999,0.011374972527439364,0.6,0.632,0.646,12.541999999999998,0.30840000000000006,0.00835703296631048,0.286,0.312,0.318,6.168000000000001,0.7732,0.01265543361564511,0.748,0.774,0.792,15.464,,,,,,0.0,-75.4,0.4898979485566356,-76.0,-75.0,-75.0,-1508.0,,,,,,0.0,,,,,,0.0
0.5386,0.19852163610045126,0.002,0.623,0.638,10.772,0.25730000000000003,0.19961690810149324,-0.576,0.305,0.384,5.146000000000001,0.8164,0.09487591896788142,0.744,0.78,1.08,16.328,,,,,,0.0,-75.2,1.7204650534085253,-77.0,-76.0,-72.0,-1504.0,,,,,,0.0,,,,,,0.0
-0.37539999999999996,0.5364546951980195,-1.312,-0.511,0.87,-7.507999999999999,0.6859999999999999,0.7249788962445735,-0.584,0.495,2.652,13.719999999999999,0.4488,0.344953562092059,-0.8,0.503,0.952,8.975999999999999,,,,,,0.0,-69.4,1.3564659966250536,-71.0,-70.0,-67.0,-1388.0,,,,,,0.0,,,,,,0.0
-0.7572999999999999,0.22152225621819582,-1.304,-0.732,-0.472,-15.145999999999997,0.0938,0.3222842844446499,-0.46,-0.041,0.584,1.876,0.5386,0.22272772615909317,0.338,0.448,1.264,10.772,,,,,,0.0,-70.6,2.8705400188814645,-75.0,-71.0,-67.0,-1412.0,,,,,,0.0,,,,,,0.0
-0.36200000000000004,0.10158149437766703,-0.646,-0.337,-0.224,-7.240000000000001,1.0072,0.4871687182075631,0.576,0.882,3.048,20.144000000000002,0.09649999999999997,0.2347371934738933,-0.562,0.138,0.728,1.9299999999999995,,,,,,0.0,-66.6,0.7999999999999999,-68.0,-66.0,-66.0,-1332.0,,,,,,0.0,,,,,,0.0
-0.3729,0.0091098847413126,-0.4,-0.372,-0.356,-7.458,0.8700999999999999,0.016266222671536264,0.83,0.871,0.902,17.401999999999997,0.1537,0.012700787377166818,0.132,0.152,0.184,3.0740000000000003,,,,,,0.0,-66.2,0.39999999999999997,-67.0,-66.0,-66.0,-1324.0,,,,,,0.0,,,,,,0.0
-0.36,0.012441864811996634,-0.378,-0.36,-0.33,-7.2,0.8817999999999999,0.006808817812219687,0.87,0.88,0.896,17.636,0.1692,0.009173875952943769,0.152,0.168,0.184,3.384,,,,,,0.0,-66.4,0.4898979485566356,-67.0,-66.0,-66.0,-1328.0,,,,,,0.0,,,,,,0.0
-0.4063,0.2851478739180778,-0.994,-0.374,0.14,-8.126,0.7819,0.4506193404637666,-0.136,0.89,1.694,15.638000000000002,0.36630000000000007,0.3267092132156668,-0.11,0.271,1.11,7.326000000000001,,,,,,0.0,-67.2,0.39999999999999997,-68.0,-67.0,-67.0,-1344.0,,,,,,0.0,,,,,,0.0
-0.5327,0.6443608538699415,-1.848,-0.312,0.354,-10.654,0.6897,0.38099778214577573,-0.016,0.5569999999999999,1.374,13.794,0.24409999999999998,0.11958841917175758,0.056,0.225,0.496,4.882,,,,,,0.0,-68.0,4.33589667773576,-74.0,-67.0,-63.0,-1360.0,,,,,,0.0,,,,,,0.0
0.5515,0.20388906297298048,0.162,0.627,0.818,11.03,0.13569999999999996,0.25015377270790856,-0.1,0.051000000000000004,0.838,2.713999999999999,0.6869,0.13661694624020843,0.398,0.719,0.846,13.738,,,,,,0.0,-73.0,2.449489742783178,-76.0,-73.0,-69.0,-1460.0,,,,,,0.0,,,,,,0.0
0.7876000000000001,0.06761538286514394,0.652,0.782,0.944,15.752000000000002,0.0986,0.10621318185611425,-0.028,0.08299999999999999,0.348,1.972,0.6617,0.04918648188272871,0.526,0.662,0.74,13.234,,,,,,0.0,-70.2,0.7483314773547882,-71.0,-70.0,-69.0,-1404.0,,,,,,0.0,,,,,,0.0
0.8188000000000001,0.08820521526531185,0.674,0.787,1.006,16.376,0.18910000000000002,0.29478906017693396,-0.356,0.28700000000000003,0.608,3.7820000000000005,0.5157999999999999,0.09314912774685548,0.326,0.523,0.692,10.315999999999999,,,,,,0.0,-68.4,1.3564659966250536,-70.0,-69.0,-66.0,-1368.0,,,,,,0.0,,,,,,0.0
0.8190999999999999,0.030760201559807746,0.766,0.816,0.87,16.381999999999998,-0.2785000000000001,0.04028337125911882,-0.34,-0.28300000000000003,-0.206,-5.570000000000001,0.5357000000000001,0.030095016198699743,0.48,0.544,0.584,10.714,,,,,,0.0,-66.6,0.4898979485566356,-67.0,-67.0,-66.0,-1332.0,,,,,,0.0,,,,,,0.0
-0.0534,0.7469099276351868,-1.298,0.21799999999999997,0.856,-1.068,0.31639999999999996,0.5021281111429632,-0.32,0.446,1.128,6.327999999999999,0.4751,0.05553908533636471,0.372,0.466,0.576,9.502,,,,,,0.0,-70.2,1.5999999999999999,-73.0,-70.0,-68.0,-1404.0,,,,,,0.0,,,,,,0.0
-0.8375,0.029324904091914766,-0.904,-0.841,-0.77,-16.75,0.37560000000000004,0.03760106381473801,0.312,0.369,0.472,7.5120000000000005,0.3307,0.04687547333094355,0.254,0.337,0.462,6.614,,,,,,0.0,-71.6,1.8547236990991411,-74.0,-72.0,-69.0,-1432.0,,,,,,0.0,,,,,,0.0
-0.8443999999999999,0.009264987857520383,-0.858,-0.847,-0.82,-16.887999999999998,0.36249999999999993,0.013840158958624714,0.336,0.366,0.384,7.249999999999999,0.3198,0.008553361912137245,0.302,0.318,0.336,6.396,,,,,,0.0,-75.4,0.7999999999999999,-76.0,-76.0,-74.0,-1508.0,,,,,,0.0,,,,,,0.0
-0.8541000000000001,0.036592212286222864,-0.916,-0.863,-0.782,-17.082,0.3134,0.056423753863067284,0.16,0.319,0.386,6.268,0.2558,0.10150842329580338,0.062,0.28300000000000003,0.408,5.1160000000000005,,,,,,0.0,-72.2,3.867815921162743,-76.0,-75.0,-67.0,-1444.0,,,,,,0.0,,,,,,0.0
-0.9443000000000001,0.2115318179376332,-1.566,-0.882,-0.698,-18.886000000000003,0.022499999999999996,0.258212993476316,-0.546,0.054,0.662,0.4499999999999999,-0.0833,0.2800466211186987,-0.616,-0.028999999999999998,0.67,-1.666,,,,,,0.0,-74.4,4.223742416388576,-77.0,-76.0,-66.0,-1488.0,,,,,,0.0,,,,,,0.0
-0.8865999999999998,0.16857057869035155,-1.284,-0.868,-0.52,-17.731999999999996,-0.047200000000000006,0.11050683236795815,-0.258,-0.041999999999999996,0.124,-0.9440000000000001,-0.23609999999999998,0.10430239690438566,-0.404,-0.247,-0.01,-4.7219999999999995,,,,,,0.0,-76.2,4.166533331199932,-82.0,-77.0,-69.0,-1524.0,,,,,,0.0,,,,,,0.0
-0.877375,0.014084011324903155,-0.914,-0.873,-0.864,-14.038,-0.1125,0.022787057730211686,-0.166,-0.104,-0.072,-1.8,-0.236125,0.021076868244594593,-0.292,-0.232,-0.208,-3.778,,,,,,0.0,-79.25,0.4330127018922193,-80.0,-79.0,-79.0,-1268.0,,,,,,0.0,,,,,,0.0
-0.8854999999999998,0.01194780314534853,-0.912,-0.886,-0.866,-17.709999999999997,-0.09079999999999999,0.02370991353843367,-0.13,-0.092,-0.052,-1.8159999999999998,-0.2206,0.021043763921884322,-0.274,-0.218,-0.184,-4.412,,,,,,0.0,-81.2,1.1661903789690602,-83.0,-81.0,-80.0,-1624.0,,,,,,0.0,,,,,,0.0
-0.9337,0.08026026414110535,-1.09,-0.929,-0.802,-18.674,0.0996,0.1254585190411556,-0.09,0.108,0.306,1.992,-0.1796,0.08776924290433409,-0.372,-0.168,0.054,-3.592,,,,,,0.0,-74.4,3.3823069050575523,-78.0,-75.0,-68.0,-1488.0,,,,,,0.0,,,,,,0.0
-0.8158000000000001,0.08516783430380274,-0.96,-0.8109999999999999,-0.682,-16.316000000000003,0.32370000000000004,0.08043948035635239,0.188,0.334,0.52,6.474000000000001,0.21819999999999995,0.12264403776784259,-0.1,0.274,0.332,4.363999999999999,,,,,,0.0,-73.6,1.7435595774162693,-76.0,-73.0,-71.0,-1472.0,,,,,,0.0,,,,,,0.0
-0.8596,0.012768711759609905,-0.882,-0.864,-0.826,-17.192,0.34469999999999995,0.02298934535823062,0.316,0.344,0.428,6.893999999999999,0.29849999999999993,0.022767301113658597,0.254,0.298,0.344,5.969999999999999,,,,,,0.0,-78.0,3.7416573867739413,-85.0,-77.0,-74.0,-1560.0,,,,,,0.0,,,,,,0.0
-0.8591000000000001,0.01420528070824369,-0.882,-0.86,-0.83,-17.182000000000002,0.34679999999999994,0.02522221243269511,0.31,0.344,0.422,6.935999999999999,0.2993,0.01482261785245778,0.264,0.3,0.328,5.986,,,,,,0.0,-73.0,0.8944271909999159,-74.0,-73.0,-72.0,-1460.0,,,,,,0.0,,,,,,0.0
-0.8672000000000001,0.02664132128855475,-0.914,-0.862,-0.808,-17.344,0.3357,0.011937755232873546,0.302,0.334,0.352,6.7139999999999995,0.288,0.02280350850198276,0.248,0.284,0.342,5.76,,,,,,0.0,-72.6,1.624807680927192,-75.0,-73.0,-70.0,-1452.0,,,,,,0.0,,,,,,0.0
-0.7955,0.22999032588350318,-1.488,-0.813,-0.452,-15.91,0.3293,0.24164790501885175,-0.042,0.277,0.896,6.585999999999999,0.146,0.13537651199524975,-0.204,0.179,0.366,2.92,,,,,,0.0,-70.6,2.0591260281974,-73.0,-71.0,-67.0,-1412.0,,,,,,0.0,,,,,,0.0
-0.9386999999999999,0.27115255853485876,-1.306,-0.981,-0.484,-18.773999999999997,0.4227,0.14331960786996314,0.166,0.385,0.78,8.454,0.027000000000000003,0.23988955792197375,-0.25,0.003,0.494,0.54,,,,,,0.0,-71.4,2.4166091947189146,-74.0,-72.0,-67.0,-1428.0,,,,,,0.0,,,,,,0.0
-0.8377000000000001,0.2618948453100977,-1.552,-0.786,-0.448,-16.754,0.20140000000000002,0.2537109378801001,-0.526,0.193,0.664,4.0280000000000005,-0.19930000000000003,0.14854127372552048,-0.404,-0.241,0.128,-3.9860000000000007,-99.0,0.0,-99.0,,-99.0,-396.0,-73.4,1.2,-75.0,-74.0,-72.0,-1468.0,,,,,,0.0,,,,,,0.0
-0.8968999999999999,0.15350110748786147,-1.25,-0.866,-0.656,-17.938,0.2523000000000001,0.22407612545739897,-0.378,0.239,0.542,5.046000000000001,0.036799999999999986,0.24066108950139822,-0.436,0.063,0.696,0.7359999999999998,,,,,,0.0,-70.4,3.0066592756745814,-74.0,-71.0,-66.0,-1408.0,,,,,,0.0,,,,,,0.0
-0.85275,0.09992716097238027,-1.012,-0.842,-0.652,-13.644,0.41737499999999994,0.21454686987928767,0.032,0.399,0.986,6.677999999999999,0.022000000000000006,0.14921796138535065,-0.306,0.062,0.212,0.3520000000000001,,,,,,0.0,-72.75,3.031088913245535,-77.0,-72.5,-69.0,-1164.0,,,,,,0.0,,,,,,0.0
-0.928,0.49674858620305795,-1.992,-0.738,-0.018,-17.632,0.44368421052631585,0.40307881593548883,-0.16,0.422,1.312,8.430000000000001,-0.10042105263157895,0.3000951280387207,-0.672,-0.112,0.572,-1.9080000000000001,,,,,,0.0,-67.47368421052632,2.0356925900856546,-70.0,-67.0,-65.0,-1282.0,,,,,,0.0,,,,,,0.0
-0.7828,0.21149978723393553,-1.234,-0.796,-0.378,-15.656,0.3002,0.14970090180089096,-0.078,0.328,0.544,6.0040000000000004,0.1426,0.048100311849300935,0.056,0.14100000000000001,0.246,2.8520000000000003,,,,,,0.0,-70.5,3.943348830626071,-76.0,-72.0,-66.0,-1410.0,,,,,,0.0,,,,,,0.0
-0.875,0.03761648574760807,-0.962,-0.866,-0.808,-17.5,0.32820000000000005,0.028634943687739285,0.296,0.324,0.44,6.564000000000001,0.24420000000000003,0.017651062290978414,0.21,0.248,0.27,4.884,,,,,,0.0,-69.4,1.7435595774162693,-76.0,-69.0,-68.0,-1388.0,,,,,,0.0,,,,,,0.0
-0.8667000000000001,0.008655056325639952,-0.884,-0.868,-0.846,-17.334000000000003,0.33380000000000004,0.010017983829094546,0.318,0.335,0.352,6.676000000000001,0.27460000000000007,0.016125755796240985,0.248,0.274,0.304,5.492000000000001,,,,,,0.0,-69.5,0.8660254037844386,-71.0,-69.0,-68.0,-1390.0,,,,,,0.0,,,,,,0.0
-0.86975,0.009161741100904355,-0.884,-0.869,-0.852,-13.916,0.325125,0.011444840540610438,0.294,0.327,0.342,5.202,0.26225000000000004,0.015538259233260339,0.226,0.265,0.286,4.196000000000001,,,,,,0.0,-69.6875,0.7680128579652817,-71.0,-69.5,-69.0,-1115.0,,,,,,0.0,,,,,,0.0
-0.8969000000000001,0.04044984548796201,-0.97,-0.883,-0.814,-17.938000000000002,0.2893,0.055559967602582354,0.166,0.324,0.342,5.7860000000000005,0.20990000000000003,0.06283462421308811,0.08,0.245,0.268,4.198,,,,,,0.0,-70.7,0.9539392014169457,-72.0,-71.0,-69.0,-1414.0,,,,,,0.0,,,,,,0.0
-0.8597000000000001,0.12940057959684725,-1.082,-0.829,-0.614,-17.194000000000003,0.2942,0.11866574906012266,0.056,0.301,0.472,5.884,0.20859999999999998,0.18566755236174143,-0.088,0.156,0.51,4.172,,,,,,0.0,-69.1,2.718455443813637,-74.0,-69.0,-66.0,-1382.0,,,,,,0.0,,,,,,0.0
-0.9103999999999999,0.46952086215630506,-2.212,-0.81,-0.014,-18.208,-0.021300000000000003,0.5028408396301955,-1.066,-0.036000000000000004,0.974,-0.42600000000000005,0.0813,0.35722949206357535,-0.378,-0.094,0.818,1.626,,,,,,0.0,-71.8,1.2489995996796799,-73.0,-72.0,-67.0,-1436.0,,,,,,0.0,,,,,,0.0
-0.35719999999999996,0.39518572848725186,-1.438,-0.247,0.12,-7.143999999999999,0.5924999999999999,0.5804077446071857,-0.894,0.476,2.268,11.849999999999998,0.6748000000000001,0.3082255018651117,0.048,0.653,1.23,13.496,-101.0,0.0,-101.0,,-101.0,-404.0,-68.0,4.147288270665544,-74.0,-68.0,-63.0,-1360.0,-102.5,0.5,-103.0,,-102.0,-820.0,,,,,,0.0
-0.38010000000000005,0.21114021407586003,-1.106,-0.304,-0.272,-7.602000000000001,0.5046,0.13764170879497248,0.358,0.474,0.988,10.092,0.9071,0.07720485736014282,0.83,0.88,1.198,18.142,,,,,,0.0,-64.2,2.85657137141714,-71.0,-63.0,-63.0,-1284.0,,,,,,0.0,,,,,,0.0
-0.7010000000000001,0.4399370409501796,-1.444,-0.842,0.242,-14.020000000000001,0.32730000000000004,0.372934994335474,-0.448,0.36,1.33,6.546,0.11119999999999997,0.5296037764215811,-0.554,-0.06,1.052,2.2239999999999993,,,,,,0.0,-69.15,2.080264406271472,-72.0,-69.0,-66.0,-1383.0,,,,,,0.0,,,,,,0.0
-0.23590000000000005,0.651806251887783,-1.626,-0.087,0.79,-4.718000000000001,0.7203999999999999,0.44230695224018357,0.082,0.742,2.044,14.408,0.0747,0.623935020655196,-1.544,0.068,0.888,1.494,,,,,,0.0,-70.85,0.7921489758877429,-72.0,-71.0,-70.0,-1417.0,-99.5,1.5,-101.0,,-98.0,-796.0,,,,,,0.0
0.4366999999999999,0.1615986076672692,0.252,0.41000000000000003,0.894,8.733999999999998,0.7415999999999998,0.2256524761663386,0.344,0.7170000000000001,1.324,14.831999999999997,0.5921,0.17278828085260875,0.334,0.5489999999999999,1.084,11.841999999999999,,,,,,0.0,-79.25,5.717298313014636,-87.0,-77.0,-71.0,-1585.0,,,,,,0.0,,,,,,0.0
0.5488,0.21934848985119548,-0.042,0.563,0.936,10.975999999999999,0.303,0.2835626914810903,-0.266,0.406,0.688,6.06,0.7666999999999999,0.165934053165708,0.428,0.798,1.058,15.334,,,,,,0.0,-70.15,1.9817921182606415,-74.0,-69.0,-68.0,-1403.0,,,,,,0.0,,,,,,0.0
0.5357000000000001,0.021764879967507297,0.476,0.542,0.566,10.714,0.44350000000000006,0.0793369396939408,0.262,0.445,0.704,8.870000000000001,0.767,0.04148011571825711,0.608,0.776,0.816,15.34,,,,,,0.0,-73.4,2.6153393661244038,-78.0,-72.0,-71.0,-1468.0,,,,,,0.0,,,,,,0.0
0.4263,0.2587773367202005,0.044,0.46299999999999997,1.016,8.526,0.6119,0.24205906304040753,0.252,0.571,1.152,12.238,0.6269,0.21813067184602902,0.192,0.703,0.878,12.538,,,,,,0.0,-71.2,2.5612496949731396,-75.0,-71.0,-68.0,-1424.0,,,,,,0.0,,,,,,0.0
0.21969999999999995,0.11957303207663507,-0.038,0.263,0.464,4.393999999999999,0.6336999999999999,0.2777194807715152,0.056,0.613,1.23,12.674,0.7797999999999999,0.1577921417561724,0.39,0.802,1.078,15.595999999999998,,,,,,0.0,-73.6,1.854723699099141,-76.0,-74.0,-71.0,-1472.0,,,,,,0.0,,,,,,0.0
0.2815,0.01648484152183453,0.24,0.283,0.3,4.504,0.5391250000000001,0.02584539369017234,0.486,0.548,0.582,8.626000000000001,0.84375,0.019772139489696118,0.816,0.836,0.88,13.5,,,,,,0.0,-75.75,0.4330127018922193,-76.0,-76.0,-75.0,-1212.0,,,,,,0.0,,,,,,0.0
0.2629,0.015880491176282926,0.226,0.262,0.294,5.258,0.5301,0.01532938354924946,0.498,0.532,0.568,10.602,0.8649999999999999,0.017994443586840925,0.824,0.863,0.894,17.299999999999997,,,,,,0.0,-75.95,0.21794494717703367,-76.0,-76.0,-75.0,-1519.0,,,,,,0.0,,,,,,0.0
0.26280000000000003,0.01884038216172911,0.236,0.262,0.322,5.256,0.5284,0.022526428922490144,0.47,0.532,0.568,10.568,0.8596,0.015818975946628164,0.824,0.861,0.888,17.192,,,,,,0.0,-76.4,1.3564659966250536,-79.0,-76.0,-75.0,-1528.0,,,,,,0.0,,,,,,0.0
0.2575,0.009184225606985064,0.242,0.262,0.28,5.15,0.5196,0.011092339699089647,0.486,0.52,0.536,10.392,0.8807,0.01115840490392781,0.864,0.879,0.91,17.614,,,,,,0.0,-76.55,0.804673846971554,-78.0,-76.0,-76.0,-1531.0,,,,,,0.0,,,,,,0.0
0.49749999999999994,0.23105572920834488,0.126,0.427,1.016,9.95,0.5946,0.40552045571092954,-0.17,0.644,1.774,11.892000000000001,0.5706,0.3244454345494786,-0.058,0.5640000000000001,1.186,11.412,,,,,,0.0,-72.55,3.8141185089087104,-77.0,-74.0,-66.0,-1451.0,,,,,,0.0,,,,,,0.0
0.5391999999999999,0.2961103848229575,-0.098,0.517,1.1,10.783999999999999,0.47729999999999995,0.29987682471308114,-0.008,0.40700000000000003,1.196,9.546,0.7761000000000001,0.19062368688072318,0.402,0.799,1.144,15.522000000000002,,,,,,0.0,-70.0,0.6324555320336759,-71.0,-70.0,-69.0,-1400.0,,,,,,0.0,,,,,,0.0
0.5767999999999999,0.039886839934996095,0.498,0.586,0.656,11.535999999999998,0.36350000000000005,0.031961695824846335,0.274,0.366,0.412,7.2700000000000005,0.7983999999999999,0.02166656410232133,0.752,0.8,0.83,15.967999999999998,,,,,,0.0,-71.3,0.5567764362830021,-72.0,-71.0,-70.0,-1426.0,,,,,,0.0,,,,,,0.0
0.5659000000000001,0.01701146672100907,0.53,0.565,0.614,11.318000000000001,0.37,0.014099645385611658,0.336,0.373,0.39,7.4,0.7935000000000001,0.01994868416713243,0.732,0.798,0.816,15.870000000000001,,,,,,0.0,-71.8,0.39999999999999997,-72.0,-72.0,-71.0,-1436.0,,,,,,0.0,,,,,,0.0
0.5561999999999999,0.009816312953446397,0.536,0.557,0.572,11.123999999999999,0.3619,0.018444240293381566,0.302,0.366,0.386,7.2379999999999995,0.8084,0.011217842929904095,0.776,0.81,0.824,16.168,,,,,,0.0,-72.0,0.0,-72.0,-72.0,-72.0,-1440.0,,,,,,0.0,,,,,,0.0
0.3781,0.3094856862602857,-0.178,0.5,1.03,7.562,0.6523,0.5437471011416981,0.014,0.388,1.968,13.046,0.6617000000000001,0.4549462715530263,-0.53,0.807,1.464,13.234000000000002,,,,,,0.0,-70.6,2.2,-74.0,-69.0,-68.0,-1412.0,,,,,,0.0,,,,,,0.0
-0.5587,0.4073348867946373,-1.16,-0.646,0.496,-11.174,0.5135,0.8057984549501197,-1.754,0.487,1.934,10.27,0.35669999999999996,0.3342533619875797,-0.316,0.396,1.148,7.1339999999999995,,,,,,0.0,-67.05,1.4309088021254184,-69.0,-67.0,-65.0,-1341.0,,,,,,0.0,,,,,,0.0
-0.8579000000000001,0.6877021084743016,-2.29,-0.94,0.71,-17.158,0.002700000000000008,0.4407812496012053,-0.57,-0.064,1.72,0.05400000000000016,0.28790000000000004,0.24751199970910504,-0.218,0.359,0.67,5.758000000000001,,,,,,0.0,-70.15,1.9045996954740911,-72.0,-71.0,-67.0,-1403.0,,,,,,0.0,,,,,,0.0
-0.6328999999999999,0.24810761777905976,-1.098,-0.6699999999999999,-0.232,-12.657999999999998,0.20099999999999998,0.3485504267677777,-0.346,0.28300000000000003,1.148,4.02,0.6156000000000001,0.11609926787021528,0.296,0.601,0.808,12.312000000000003,,,,,,0.0,-69.85,1.388344337691482,-71.0,-70.0,-67.0,-1397.0,,,,,,0.0,,,,,,0.0
-0.49350000000000005,0.07881338718771069,-0.628,-0.508,-0.25,-9.870000000000001,0.40040000000000003,0.2987263630816671,-0.73,0.522,0.582,8.008000000000001,0.8030000000000002,0.1941571528427423,0.67,0.713,1.392,16.060000000000002,,,,,,0.0,-66.05,0.21794494717703367,-67.0,-66.0,-66.0,-1321.0,,,,,,0.0,,,,,,0.0
-0.45309999999999995,0.31467155893089543,-1.0,-0.469,0.184,-9.062,0.5138999999999999,0.37039518085417905,-0.178,0.568,1.326,10.277999999999999,0.6656,0.20400058823444603,0.152,0.704,0.976,13.312,,,,,,0.0,-68.3,1.9261360284258224,-71.0,-68.0,-66.0,-1366.0,,,,,,0.0,,,,,,0.0
-0.7099,0.45371421621985797,-1.604,-0.835,0.254,-14.198,0.5276,0.3925494109026276,-0.506,0.539,1.416,10.552,0.2576,0.10197372210525613,0.088,0.23399999999999999,0.494,5.152,,,,,,0.0,-67.5,3.7080992435478315,-74.0,-65.0,-64.0,-1350.0,-100.0,0.0,-100.0,,-100.0,-300.0,,,,,,0.0
0.5104,0.21481396602642017,0.142,0.606,0.76,10.208,0.26980000000000004,0.44911909333716815,-0.098,0.068,1.534,5.396000000000001,0.6888,0.09507975599463853,0.462,0.6970000000000001,0.816,13.776,,,,,,0.0,-75.1,2.2781571499789033,-80.0,-74.0,-73.0,-1502.0,-100.0,0.0,-100.0,,-100.0,-100.0,,,,,,0.0
0.1808,0.6082250899132656,-1.172,0.363,0.808,3.6159999999999997,0.31379999999999997,0.41365101232802515,-0.302,0.09,0.984,6.276,0.6177000000000001,0.17870565184123302,0.288,0.733,0.88,12.354000000000003,,,,,,0.0,-69.9,4.146082488325576,-80.0,-70.0,-65.0,-1398.0,,,,,,0.0,,,,,,0.0
-0.9298000000000002,0.18885751242669702,-1.616,-0.858,-0.734,-18.596000000000004,0.3582,0.17254668933364092,0.22,0.305,0.886,7.164000000000001,0.3713,0.10239194304240934,0.254,0.335,0.582,7.426,,,,,,0.0,-70.3,2.215851980616034,-74.0,-69.0,-68.0,-1406.0,,,,,,0.0,,,,,,0.0
-0.8714000000000001,0.00792716847304257,-0.888,-0.872,-0.856,-17.428,0.29630000000000006,0.016040885262353824,0.272,0.295,0.332,5.926000000000001,0.34109999999999996,0.01433143398268295,0.312,0.339,0.366,6.821999999999999,,,,,,0.0,-74.2,1.8867962264113207,-77.0,-74.0,-72.0,-1484.0,,,,,,0.0,,,,,,0.0
-0.8657999999999999,0.009795917517006774,-0.888,-0.866,-0.848,-17.316,0.2994,0.01027813212602368,0.272,0.301,0.318,5.9879999999999995,0.32289999999999996,0.00863655023721857,0.304,0.322,0.336,6.457999999999999,,,,,,0.0,-76.4,0.4898979485566356,-77.0,-76.0,-76.0,-1528.0,,,,,,0.0,,,,,,0.0
-0.8642999999999998,0.00932255329831909,-0.888,-0.865,-0.848,-17.285999999999998,0.299,0.006884765791223409,0.286,0.301,0.312,5.9799999999999995,0.3233,0.0070505318948289345,0.304,0.326,0.334,6.465999999999999,,,,,,0.0,-77.35,1.061838029079765,-79.0,-77.0,-76.0,-1547.0,,,,,,0.0,,,,,,0.0
-0.8562999999999998,0.04519413678786221,-0.938,-0.863,-0.702,-17.125999999999998,0.3181,0.03023557507308237,0.27,0.317,0.38,6.362,0.3221,0.02904117766207149,0.278,0.316,0.39,6.442,,,,,,0.0,-75.15,2.7798381247835278,-77.0,-77.0,-70.0,-1503.0,,,,,,0.0,,,,,,0.0
-0.8562000000000001,0.0698509842450341,-1.038,-0.841,-0.752,-17.124000000000002,0.25910000000000005,0.10571939273378371,0.054,0.239,0.418,5.182000000000001,0.027199999999999995,0.13682309746530372,-0.144,-0.020999999999999998,0.248,0.5439999999999999,,,,,,0.0,-70.6,4.004996878900157,-78.0,-69.0,-66.0,-1412.0,,,,,,0.0,,,,,,0.0
-0.9784,0.30909584274137364,-2.26,-0.892,-0.73,-19.568,-0.021099999999999997,0.09501468307582782,-0.244,-0.038000000000000006,0.142,-0.42199999999999993,-0.15630000000000002,0.1587303058650112,-0.492,-0.207,0.198,-3.1260000000000003,,,,,,0.0,-71.9,1.609347693943108,-78.0,-71.0,-71.0,-1438.0,,,,,,0.0,,,,,,0.0
-0.8894,0.01525909564816999,-0.912,-0.89,-0.856,-17.788,0.030000000000000006,0.031164081889251932,-0.05,0.032,0.078,0.6000000000000001,-0.2218,0.03162846818927531,-0.3,-0.214,-0.178,-4.436,,,,,,0.0,-71.4,0.4898979485566356,-72.0,-71.0,-71.0,-1428.0,,,,,,0.0,,,,,,0.0
-0.8945263157894736,0.010479897654445182,-0.914,-0.896,-0.872,-16.996,0.00021052631578947277,0.019776591551812012,-0.032,0.006,0.03,0.003999999999999983,-0.198,0.021937710862684305,-0.254,-0.194,-0.154,-3.762,,,,,,0.0,-71.57894736842105,0.49372797471825575,-72.0,-72.0,-71.0,-1360.0,,,,,,0.0,,,,,,0.0
-0.9656999999999998,0.08045688286281047,-1.112,-0.933,-0.882,-19.313999999999997,0.024999999999999998,0.0731860642472322,-0.18,0.012,0.226,0.49999999999999994,-0.1573,0.08406015703054569,-0.276,-0.194,0.014,-3.146,,,,,,0.0,-70.55,2.011839953873071,-73.0,-71.0,-67.0,-1411.0,,,,,,0.0,,,,,,0.0
-0.827,0.0782419324914716,-0.942,-0.841,-0.67,-16.54,0.26070000000000004,0.10994230305028178,0.024,0.285,0.44,5.214,0.23179999999999995,0.11286611537569634,0.006,0.245,0.412,4.635999999999999,,,,,,0.0,-72.5,1.8303005217723127,-76.0,-72.0,-71.0,-1450.0,,,,,,0.0,,,,,,0.0
-0.868,0.012601587201618702,-0.898,-0.866,-0.846,-17.36,0.31320000000000003,0.013948476619330168,0.288,0.31,0.338,6.264,0.3126,0.023774776549948893,0.27,0.311,0.35,6.252,,,,,,0.0,-72.8,1.4,-75.0,-73.0,-71.0,-1456.0,,,,,,0.0,,,,,,0.0
-0.8598000000000001,0.007039886362719223,-0.872,-0.858,-0.84,-17.196,0.3137999999999999,0.010970870521521993,0.294,0.317,0.334,6.275999999999998,0.3174,0.010394229168149038,0.296,0.319,0.336,6.348,,,,,,0.0,-74.0,0.6324555320336759,-75.0,-74.0,-73.0,-1480.0,,,,,,0.0,,,,,,0.0
-0.8615999999999999,0.017200000000000014,-0.896,-0.861,-0.834,-17.232,0.3055999999999999,0.010518555033843769,0.28,0.304,0.326,6.111999999999998,0.31520000000000004,0.01241611855613501,0.284,0.316,0.344,6.304,,,,,,0.0,-72.95,0.864580823289529,-75.0,-73.0,-72.0,-1459.0,,,,,,0.0,,,,,,0.0
-0.8663000000000001,0.02541869390822432,-0.958,-0.861,-0.84,-17.326,0.30970000000000003,0.015023648025696031,0.28,0.307,0.334,6.194000000000001,0.30929999999999996,0.014536505769957247,0.284,0.31,0.332,6.185999999999999,,,,,,0.0,-72.95,1.116915395184434,-75.0,-73.0,-72.0,-1459.0,,,,,,0.0,,,,,,0.0
-0.843,0.15989308928155713,-1.396,-0.863,-0.58,-16.86,0.23070000000000004,0.11282778913016066,-0.084,0.269,0.33,4.614000000000001,0.2089,0.0875841880706786,0.048,0.191,0.344,4.178,,,,,,0.0,-68.8,2.749545416973504,-73.0,-69.0,-64.0,-1376.0,,,,,,0.0,,,,,,0.0
-0.8022,0.27098701075881854,-1.328,-0.726,-0.36,-16.044,0.5431999999999999,0.3305488768699722,-0.266,0.518,1.35,10.863999999999997,0.27219999999999994,0.184182409583543,-0.18,0.301,0.542,5.443999999999999,,,,,,0.0,-67.9,4.288356328478313,-75.0,-66.0,-63.0,-1358.0,,,,,,0.0,,,,,,0.0
-0.8649000000000001,0.2305822846621136,-1.232,-0.9,-0.308,-17.298000000000002,0.47400000000000003,0.28197872260154666,-0.084,0.427,1.382,9.48,0.036800000000000006,0.22218226751925996,-0.43,-0.036000000000000004,0.608,0.7360000000000001,,,,,,0.0,-68.25,3.713152299596665,-74.0,-69.0,-63.0,-1365.0,,,,,,0.0,,,,,,0.0
-0.8545263157894737,0.37943716883952333,-1.936,-0.814,-0.258,-16.236,0.320421052631579,0.3646890984169326,-0.848,0.432,0.806,6.088000000000001,-0.016210526315789488,0.43286458061656485,-0.916,0.112,0.48,-0.3080000000000003,,,,,,0.0,-71.15789473684211,1.8428569894749052,-74.0,-71.0,-69.0,-1352.0,,,,,,0.0,,,,,,0.0
-0.8779999999999999,0.038574603043971825,-0.944,-0.879,-0.786,-17.56,0.2931,0.03806034681922907,0.178,0.303,0.344,5.862,0.28330000000000005,0.028735170088238553,0.248,0.274,0.352,5.666000000000001,,,,,,0.0,-71.3,0.7810249675906654,-72.0,-71.5,-70.0,-1426.0,,,,,,0.0,,,,,,0.0
-0.847,0.5249852378876952,-2.092,-0.833,0.32,-13.552,0.5755,0.29850251255223964,0.236,0.487,1.158,9.208,0.094625,0.1683281300763482,-0.144,0.118,0.322,1.514,,,,,,0.0,-80.125,10.227872457163318,-97.0,-76.5,-69.0,-1282.0,,,,,,0.0,,,,,,0.0
-0.7804,0.7178277230645247,-2.368,-0.68,1.31,-15.607999999999999,0.4932,0.44994195181156427,-0.344,0.424,1.772,9.864,0.2004,0.18265552277442917,-0.018,0.153,0.782,4.008,,,,,,0.0,-68.7,1.8466185312619385,-72.0,-68.0,-67.0,-1374.0,,,,,,0.0,,,,,,0.0
-0.8717,0.06919328002053378,-1.012,-0.868,-0.75,-17.434,0.3266,0.07848847049089439,0.116,0.334,0.462,6.532,0.30179999999999996,0.10468027512382647,0.126,0.319,0.454,6.036,,,,,,0.0,-71.2,1.2489995996796797,-72.0,-72.0,-69.0,-1424.0,,,,,,0.0,,,,,,0.0
-0.8610000000000001,0.021076052761368768,-0.898,-0.864,-0.802,-17.220000000000002,0.327,0.03614692241394833,0.206,0.334,0.392,6.54,0.2867,0.022389953104015203,0.24,0.287,0.326,5.734,,,,,,0.0,-69.6,0.4898979485566356,-70.0,-70.0,-69.0,-1392.0,,,,,,0.0,,,,,,0.0
-0.8593,0.01397533541636838,-0.884,-0.86,-0.83,-17.186,0.3257,0.011920989891783317,0.294,0.324,0.352,6.513999999999999,0.30369999999999997,0.013946684193742976,0.276,0.305,0.326,6.073999999999999,,,,,,0.0,-69.9,0.8306623862918073,-71.0,-70.0,-69.0,-1398.0,,,,,,0.0,,,,,,0.0
-0.8656,0.009393614852653913,-0.882,-0.866,-0.84,-17.312,0.32399999999999995,0.01019803902718558,0.3,0.326,0.342,6.479999999999999,0.3003,0.010045396955820117,0.278,0.302,0.316,6.006,,,,,,0.0,-73.5,2.5,-77.0,-73.5,-70.0,-1470.0,,,,,,0.0,,,,,,0.0
-0.8877,0.035733877483419,-0.954,-0.878,-0.8,-17.754,0.28890000000000005,0.05502172298283652,0.182,0.318,0.34,5.7780000000000005,0.2503,0.05924618131154107,0.134,0.285,0.344,5.006,,,,,,0.0,-74.4,2.4979991993593593,-77.0,-74.5,-71.0,-1488.0,,,,,,0.0,,,,,,0.0
-0.8058000000000002,0.16313049990728284,-1.25,-0.756,-0.584,-16.116000000000003,0.37429999999999997,0.12374211085964228,0.062,0.387,0.632,7.486,0.2,0.24319950657844686,-0.184,0.299,0.526,4.0,,,,,,0.0,-70.3,2.0024984394500787,-73.0,-70.0,-67.0,-1406.0,,,,,,0.0,,,,,,0.0
-0.7137,0.2892239789505704,-1.384,-0.745,-0.2,-14.274,0.3756999999999999,0.2745842493662009,-0.26,0.39,0.982,7.5139999999999985,0.3758,0.3682504039373209,-0.144,0.41000000000000003,1.136,7.516000000000001,-104.0,0.0,-104.0,,-104.0,-416.0,-71.9,2.5079872407968904,-75.0,-72.0,-68.0,-1438.0,,,,,,0.0,,,,,,0.0
-0.29780000000000006,0.1515373221355056,-0.616,-0.277,-0.008,-5.956000000000001,0.6375000000000001,0.13584384417411044,0.376,0.662,1.0,12.750000000000002,0.7550999999999999,0.16462742784846032,0.384,0.754,1.056,15.101999999999999,,,,,,0.0,-71.9,2.022374841615669,-75.0,-72.0,-69.0,-1438.0,-96.0,0.0,-96.0,,-96.0,-384.0,,,,,,0.0
-0.2509,0.04105837308028655,-0.346,-0.24,-0.188,-5.018,0.7416,0.06849700723389307,0.55,0.742,0.914,14.832,0.6437999999999999,0.04934328728408759,0.576,0.64,0.76,12.876,,,,,,0.0,-73.5,1.02469507659596,-75.0,-73.5,-72.0,-1470.0,,,,,,0.0,,,,,,0.0
-0.38259999999999994,0.24407220243198524,-1.15,-0.298,0.03,-7.651999999999999,0.6557999999999999,0.2974712759242478,-0.178,0.745,1.25,13.116,0.5659000000000002,0.19755756123216342,0.128,0.578,1.008,11.318000000000003,,,,,,0.0,-70.5,4.224926034855522,-75.0,-72.5,-65.0,-1410.0,,,,,,0.0,,,,,,0.0
-0.7718999999999999,0.32247261899268287,-1.576,-0.763,-0.132,-15.437999999999999,0.5584,0.9570211282934146,-0.298,0.263,4.094,11.168,-0.34400000000000003,0.4356269045869412,-1.224,-0.332,0.69,-6.880000000000001,,,,,,0.0,-71.9,3.080584360149872,-78.0,-70.5,-70.0,-1438.0,,,,,,0.0,,,,,,0.0
0.5352,0.222703749407144,0.05,0.5489999999999999,1.148,10.704,0.46819999999999995,0.2489633707998026,-0.036,0.435,0.956,9.363999999999999,0.7037000000000001,0.21306456767843876,0.286,0.679,1.12,14.074000000000002,,,,,,0.0,-70.2,1.2489995996796797,-72.0,-70.5,-68.0,-1404.0,,,,,,0.0,,,,,,0.0
0.5492,0.07047950056576735,0.402,0.548,0.742,10.984,0.4626,0.11209656551384614,0.278,0.479,0.718,9.252,0.7543,0.049953077983243444,0.628,0.75,0.856,15.086,,,,,,0.0,-71.6,0.7999999999999999,-72.0,-72.0,-70.0,-1432.0,,,,,,0.0,,,,,,0.0
0.5443,0.009597395480024772,0.524,0.544,0.568,10.886,0.4826999999999999,0.014646159906268948,0.446,0.484,0.52,9.653999999999998,0.7421,0.010304853225543786,0.728,0.741,0.764,14.842,,,,,,0.0,-71.8,0.39999999999999997,-72.0,-72.0,-71.0,-1436.0,,,,,,0.0,,,,,,0.0
0.5493,0.14963726140236597,0.212,0.543,0.924,10.986,0.5543999999999999,0.1631644569138757,0.39,0.489,1.022,11.087999999999997,0.6402,0.21793384317264725,-0.04,0.746,0.786,12.804,,,,,,0.0,-74.0,2.756809750418044,-80.0,-72.5,-72.0,-1480.0,,,,,,0.0,,,,,,0.0
0.47490000000000004,0.26312998688860983,0.144,0.40900000000000003,1.138,9.498000000000001,0.6169,0.16659708881009894,0.262,0.615,0.952,12.338000000000001,0.6762,0.135945430228456,0.368,0.7030000000000001,0.864,13.524000000000001,,,,,,0.0,-75.4,1.6852299546352716,-80.0,-75.0,-74.0,-1508.0,,,,,,0.0,,,,,,0.0
0.3759,0.061920836557656414,0.162,0.395,0.444,7.518,0.35240000000000005,0.11685991613893963,0.062,0.37,0.542,7.048000000000001,0.9077,0.05284798955494902,0.828,0.894,1.054,18.154,,,,,,0.0,-73.3,0.45825756949558394,-74.0,-73.0,-73.0,-1466.0,,,,,,0.0,,,,,,0.0
0.3968,0.007493997598078081,0.38,0.398,0.408,7.936,0.37679999999999997,0.010380751417888794,0.354,0.376,0.398,7.536,0.9082999999999999,0.0171262955714305,0.87,0.91,0.96,18.165999999999997,,,,,,0.0,-73.2,0.39999999999999997,-74.0,-73.0,-73.0,-1464.0,,,,,,0.0,,,,,,0.0
0.39590000000000003,0.006796322535018475,0.384,0.397,0.408,7.918,0.38,0.007099295739719546,0.368,0.382,0.396,7.6000000000000005,0.9035,0.006599242380758574,0.886,0.904,0.912,18.07,,,,,,0.0,-73.4,0.4898979485566356,-74.0,-73.0,-73.0,-1468.0,,,,,,0.0,,,,,,0.0
0.3988,0.007277362159464096,0.376,0.398,0.408,7.976,0.3851,0.004836320915737503,0.376,0.384,0.398,7.702,0.8940999999999999,0.007961783719745225,0.87,0.894,0.908,17.881999999999998,,,,,,0.0,-76.2,5.912698199637792,-88.0,-73.0,-73.0,-1524.0,,,,,,0.0,,,,,,0.0
0.45099999999999996,0.10528722619577363,0.348,0.399,0.714,9.02,0.46210000000000007,0.17025801009056812,0.304,0.391,0.956,9.242,0.807,0.21988042204798497,0.124,0.875,1.308,16.14,,,,,,0.0,-74.1,0.8306623862918073,-75.0,-74.0,-73.0,-1482.0,,,,,,0.0,,,,,,0.0
0.6813,0.22562825620919028,0.194,0.71,1.112,13.626000000000001,0.4426,0.33640695593284037,-0.242,0.45099999999999996,1.022,8.852,0.5524000000000001,0.23876565917233575,0.102,0.582,0.926,11.048000000000002,,,,,,0.0,-72.1,2.071231517720798,-75.0,-72.0,-69.0,-1442.0,,,,,,0.0,,,,,,0.0
0.5893999999999999,0.15149666662999553,0.206,0.606,0.928,11.787999999999998,0.38509999999999994,0.10008691223132025,0.296,0.366,0.796,7.701999999999999,0.7444,0.12297414362377157,0.454,0.761,1.08,14.887999999999998,,,,,,0.0,-73.6,1.5620499351813306,-75.0,-74.0,-69.0,-1472.0,,,,,,0.0,,,,,,0.0
0.5967,0.010512373661547624,0.574,0.6,0.61,11.934,0.36920000000000003,0.008034923770640273,0.352,0.368,0.382,7.384,0.767,0.011269427669584654,0.744,0.762,0.784,15.34,,,,,,0.0,-75.8,1.1661903789690602,-78.0,-75.0,-75.0,-1516.0,,,,,,0.0,,,,,,0.0
0.5962,0.011881077392223327,0.576,0.6,0.616,11.924,0.37039999999999995,0.009090654541890819,0.35,0.371,0.384,7.4079999999999995,0.7604,0.014759403781996087,0.728,0.764,0.782,15.207999999999998,,,,,,0.0,-75.7,0.45825756949558394,-76.0,-76.0,-75.0,-1514.0,,,,,,0.0,,,,,,0.0
0.5992,0.007934733769950957,0.578,0.6,0.61,11.984,0.3741,0.007334166619323569,0.358,0.374,0.384,7.482,0.7692000000000001,0.010419213022104894,0.744,0.768,0.79,15.384000000000002,,,,,,0.0,-76.0,0.0,-76.0,-76.0,-76.0,-1520.0,,,,,,0.0,,,,,,0.0
0.5122,0.2152876215670562,0.174,0.588,1.166,10.244,0.5096,0.5264319899094279,0.014,0.384,2.544,10.192,0.7891,0.179696939317285,0.44,0.766,1.196,15.782,,,,,,0.0,-73.9,2.1656407827707715,-76.0,-74.5,-69.0,-1478.0,,,,,,0.0,,,,,,0.0
-0.6340999999999999,0.8397007740856263,-2.324,-0.721,1.192,-12.681999999999999,0.41290000000000004,0.35022362855752615,0.016,0.286,1.47,8.258000000000001,0.4973000000000001,1.0083478120172622,-1.448,0.368,3.982,9.946000000000002,,,,,,0.0,-67.6,3.0066592756745814,-73.0,-66.0,-64.0,-1352.0,,,,,,0.0,,,,,,0.0
-0.8152000000000001,0.37127208351827373,-1.288,-0.911,0.11,-16.304000000000002,0.3818,0.3506536182616686,-0.254,0.35,1.026,7.635999999999999,0.5574000000000001,0.3986628149200775,-0.192,0.619,1.264,11.148000000000001,,,,,,0.0,-70.1,2.6999999999999997,-74.0,-69.0,-67.0,-1402.0,,,,,,0.0,,,,,,0.0
-0.3868,0.10837416666346275,-0.638,-0.35,-0.286,-7.736,0.9391999999999999,0.49530208963823275,0.134,0.864,2.8,18.784,0.3458,0.20205137960429767,0.062,0.324,0.92,6.916,,,,,,0.0,-73.7,0.9,-75.0,-74.0,-72.0,-1474.0,,,,,,0.0,,,,,,0.0
-0.3438,0.015124814048443696,-0.368,-0.344,-0.314,-6.8759999999999994,0.8612,0.016460862674841814,0.816,0.864,0.888,17.224,0.31399999999999995,0.009674709297958268,0.294,0.317,0.332,6.279999999999999,,,,,,0.0,-73.2,0.39999999999999997,-74.0,-73.0,-73.0,-1464.0,,,,,,0.0,,,,,,0.0
-0.35079999999999995,0.16926003663003267,-0.618,-0.35,0.128,-7.015999999999999,0.8069,0.24495507751422502,0.11,0.862,1.398,16.137999999999998,0.4077,0.1476594392512717,0.294,0.327,0.83,8.154,,,,,,0.0,-71.8,1.9390719429665317,-73.0,-73.0,-68.0,-1436.0,,,,,,0.0,,,,,,0.0
-0.8258999999999999,0.544776825865418,-1.898,-0.871,0.126,-16.517999999999997,0.41209999999999997,0.311135645659574,-0.65,0.502,0.798,8.241999999999999,0.2654,0.19259813083205143,-0.152,0.261,0.582,5.308000000000001,,,,,,0.0,-68.7,2.193171219946131,-73.0,-67.0,-67.0,-1374.0,,,,,,0.0,,,,,,0.0
0.2544,0.34400151162458575,-0.194,0.146,0.898,5.088,0.5633999999999999,0.5506730790587098,-0.144,0.45699999999999996,1.526,11.267999999999999,0.5848,0.1702896356211969,0.238,0.605,0.814,11.696,,,,,,0.0,-74.4,2.8705400188814645,-78.0,-74.0,-70.0,-1488.0,,,,,,0.0,,,,,,0.0
0.6093,0.3144654353025146,-0.256,0.743,0.966,12.186,0.1226,0.24279546947997194,-0.208,0.052000000000000005,0.816,2.452,0.575,0.11328812823945852,0.416,0.56,0.84,11.5,,,,,,0.0,-72.4,4.543126676640219,-79.0,-72.5,-66.0,-1448.0,,,,,,0.0,,,,,,0.0
-0.951,0.24039093160932673,-1.562,-0.873,-0.544,-19.02,0.4415000000000001,0.23963378309412053,0.192,0.347,0.96,8.830000000000002,0.37340000000000007,0.10849534552228497,0.216,0.394,0.542,7.468000000000001,,,,,,0.0,-71.0,5.347896782848375,-81.0,-70.0,-66.0,-1420.0,,,,,,0.0,,,,,,0.0
-0.9065000000000001,0.10849308733739675,-1.14,-0.895,-0.672,-18.130000000000003,0.27409999999999995,0.1312851476748227,-0.03,0.28300000000000003,0.56,5.481999999999999,0.20090000000000002,0.1903612092838244,-0.296,0.284,0.358,4.018000000000001,,,,,,0.0,-70.5,2.1095023109728985,-75.0,-70.5,-68.0,-1410.0,,,,,,0.0,,,,,,0.0
-0.8804000000000001,0.2890222136791565,-1.77,-0.825,-0.34,-17.608,0.1466,0.3519045893420545,-0.882,0.208,0.86,2.932,-0.1628,0.20651237251070456,-0.42,-0.237,0.408,-3.2560000000000002,,,,,,0.0,-73.8,1.1661903789690602,-75.0,-74.0,-72.0,-1476.0,,,,,,0.0,,,,,,0.0
-0.8825000000000001,0.04776557337664859,-1.01,-0.868,-0.808,-17.650000000000002,0.2815,0.13625986202840512,0.022,0.279,0.766,5.629999999999999,0.2189,0.12126248389341202,-0.066,0.242,0.39,4.378,,,,,,0.0,-70.7,2.147091055358389,-75.0,-70.0,-68.0,-1414.0,,,,,,0.0,,,,,,0.0
-0.9037000000000003,0.04391480388206236,-0.974,-0.898,-0.832,-18.074000000000005,0.33690000000000003,0.029896320843876428,0.286,0.334,0.384,6.738,0.2253,0.09234560086977613,0.088,0.273,0.344,4.506,,,,,,0.0,-70.9,3.6180105030251086,-75.0,-71.5,-66.0,-1418.0,,,,,,0.0,,,,,,0.0
-0.8953,0.1081504045299878,-1.114,-0.868,-0.722,-17.906,0.36649999999999994,0.18076490256684233,0.166,0.323,0.83,7.329999999999999,0.31920000000000004,0.1105448325341352,0.128,0.354,0.52,6.384,,,,,,0.0,-66.5,2.692582403567252,-70.0,-68.0,-62.0,-1330.0,-102.0,1.632993161855452,-104.0,,-100.0,-1224.0,,,,,,0.0
-0.3315,0.34067924797380894,-0.898,-0.155,0.3,-6.63,0.417,0.31784493074453773,-0.034,0.346,0.998,8.34,0.6790999999999999,0.3005278522866059,0.096,0.778,1.134,13.581999999999999,,,,,,0.0,-71.1,2.844292530665578,-74.0,-72.0,-66.0,-1422.0,-97.71428571428571,2.710523708715754,-102.0,,-96.0,-1368.0,,,,,,0.0
-0.008100000000000001,0.226001305305965,-0.496,-0.009000000000000001,0.398,-0.16200000000000003,0.4609,0.3343145076122183,-0.008,0.517,1.022,9.218,0.8920999999999999,0.21385927616075012,0.638,0.834,1.376,17.842,-105.0,0.0,-105.0,,-105.0,-420.0,-70.9,1.7578395831246945,-73.0,-71.0,-69.0,-1418.0,-94.1,2.9816103031751147,-97.0,-95.5,-89.0,-1882.0,,,,,,0.0
-0.295,0.10597075068149701,-0.482,-0.28300000000000003,-0.12,-5.8999999999999995,0.7036999999999999,0.14583178665846483,0.486,0.775,0.92,14.073999999999998,0.6356,0.1136425976471851,0.462,0.649,0.78,12.712000000000002,-98.0,5.0,-103.0,,-93.0,-784.0,-75.4,6.343500610861482,-87.0,-73.0,-70.0,-1508.0,-91.75,1.299038105676658,-93.0,,-89.0,-1468.0,,,,,,0.0
-0.5934999999999999,0.2185075513569268,-0.898,-0.702,-0.276,-11.87,0.5784000000000001,0.19606386714537688,0.294,0.567,0.844,11.568000000000003,0.4523,0.06705900386972655,0.332,0.454,0.582,9.046,-91.85714285714286,8.13157112614726,-99.0,,-73.0,-1286.0,-83.0,3.9749213828703582,-92.0,-82.5,-78.0,-1660.0,-87.6,4.963869458396343,-93.0,-88.5,-77.0,-1752.0,,,,,,0.0
-0.9264000000000001,0.16045011685879196,-1.33,-0.879,-0.724,-18.528000000000002,0.3124,0.1391827575527946,0.12,0.28400000000000003,0.574,6.248,0.2082,0.13162659305778598,-0.02,0.199,0.492,4.164,-75.6,2.9393876913398134,-81.0,-74.5,-73.0,-1512.0,-78.5,7.14142842854285,-92.0,,-70.0,-1256.0,-74.2,1.1661903789690602,-77.0,-74.0,-73.0,-1484.0,,,,,,0.0
-0.8974999999999997,0.14353658070331757,-1.232,-0.879,-0.72,-17.949999999999996,0.33659999999999995,0.09813888118375917,0.19,0.31799999999999995,0.51,6.731999999999999,0.37550000000000006,0.101277588833858,0.184,0.394,0.51,7.510000000000001,-75.4,3.3226495451672293,-81.0,-75.0,-71.0,-1508.0,-83.9,6.579513659838393,-92.0,-83.5,-70.0,-1678.0,-74.1,1.374772708486752,-76.0,-74.0,-72.0,-1482.0,,,,,,0.0
0.186,0.6402374559489628,-0.948,0.194,1.04,3.7199999999999998,0.5997,0.6426642280382502,-0.152,0.33499999999999996,2.36,11.994,0.2001,0.2899327335779801,-0.346,0.29800000000000004,0.63,4.002,-76.2,4.621688003316537,-84.0,-74.0,-72.0,-1524.0,-92.25,4.763139720814412,-101.0,,-85.0,-1476.0,-71.7,1.676305461424021,-74.0,-71.5,-70.0,-1434.0,,,,,,0.0
0.8166315789473684,0.22044648724715982,0.454,0.78,1.236,15.516,-0.1318947368421053,0.33241095281480504,-0.73,0.022,0.334,-2.5060000000000002,0.46473684210526317,0.1643336920015789,0.224,0.44,0.812,8.83,-77.3157894736842,3.2290235053006247,-81.0,-79.0,-71.0,-1469.0,-100.18181818181819,2.587318085592311,-103.0,,-97.0,-1102.0,-79.84210526315789,3.963825343950049,-84.0,-80.0,-71.0,-1517.0,,,,,,0.0
0.069,0.6567834498523848,-1.06,0.215,0.76,1.104,0.32675,0.7451747697688107,-0.85,0.214,1.91,5.228,0.077375,0.337040590100065,-0.64,0.175,0.77,1.238,-71.0,2.29128784747792,-75.0,-70.0,-69.0,-1136.0,-100.0,0.0,-100.0,,-100.0,-300.0,-80.3125,4.5376033046091635,-88.0,-78.0,-77.0,-1285.0,,,,,,0.0
0.4946,0.3408671882126527,-0.142,0.358,1.102,9.892,0.8023,0.34535331184165585,0.282,0.838,1.366,16.046,0.0859,0.2639048881699617,-0.344,0.006,0.674,1.718,-71.9,3.8716921365211876,-76.0,-75.0,-67.0,-1438.0,,,,,,0.0,-80.45,3.2630507198019467,-85.0,-80.0,-73.0,-1609.0,,,,,,0.0
0.762,0.2701177521008199,0.368,0.669,1.272,15.24,-0.2919,0.3095922964157862,-0.91,-0.23199999999999998,0.144,-5.838,0.5255000000000001,0.21232227862379394,-0.048,0.548,0.948,10.510000000000002,-70.85,3.1980462785894765,-75.0,-70.0,-66.0,-1417.0,,,,,,0.0,-81.42105263157895,8.910761025291919,-97.0,,-73.0,-1547.0,,,,,,0.0
0.787,0.11924680289215303,0.542,0.823,0.95,15.74,-0.2124,0.13379775782874687,-0.424,-0.21300000000000002,0.06,-4.248,0.6298999999999999,0.10596315397344493,0.43,0.619,0.848,12.597999999999999,-67.15,2.706935536727833,-72.0,-66.0,-64.0,-1343.0,,,,,,0.0,-98.0,0.0,-98.0,,-98.0,-490.0,,,,,,0.0
0.6754,0.19453236234621735,0.2,0.751,0.982,13.508000000000001,0.0422,0.3562571543141274,-0.386,-0.055,0.91,0.8440000000000001,0.5650000000000001,0.09624863635397646,0.456,0.5429999999999999,0.774,11.3,-71.8,2.4000000000000004,-76.0,-72.0,-69.0,-1436.0,-103.0,0.0,-103.0,,-103.0,-412.0,-96.54545454545455,3.5255853508482393,-100.0,,-92.0,-1062.0,,,,,,0.0
-0.3397,0.13279499237546571,-0.614,-0.33699999999999997,0.006,-6.7940000000000005,0.9378,0.14776995635107973,0.71,0.909,1.264,18.756,0.4208,0.10983150731916595,0.172,0.426,0.6,8.416,-71.7,1.8193405398660252,-75.0,-72.0,-69.0,-1434.0,,,,,,0.0,,,,,,0.0,,,,,,0.0
-0.2351,0.12201061429236393,-0.568,-0.201,-0.042,-4.702,0.8879999999999999,0.14340292884038316,0.518,0.903,1.144,17.759999999999998,0.2142,0.11716637742970464,-0.05,0.203,0.368,4.284,-71.8,3.3105890714493698,-76.0,-73.0,-67.0,-1436.0,,,,,,0.0,,,,,,0.0,,,,,,0.0
-0.4055000000000001,0.14165292090175904,-0.606,-0.451,-0.07,-8.110000000000001,0.8219999999999998,0.17576461532401794,0.622,0.754,1.296,16.439999999999998,0.3216,0.1037103659235662,0.12,0.319,0.614,6.4319999999999995,-70.55,2.1558061137310096,-74.0,-70.0,-67.0,-1411.0,,,,,,0.0,,,,,,0.0,,,,,,0.0
-0.39640000000000003,0.09459090865405619,-0.622,-0.368,-0.242,-7.928000000000001,0.8551,0.09277602060877585,0.664,0.891,0.984,17.102,0.19669999999999999,0.11619685882157056,0.032,0.16699999999999998,0.518,3.9339999999999997,-71.75,1.4097872179871684,-74.0,-71.0,-70.0,-1435.0,,,,,,0.0,,,,,,0.0,,,,,,0.0
-0.5224,0.14232863380219737,-0.76,-0.44,-0.35,-10.448,0.746,0.1329089914189405,0.55,0.795,0.888,14.92,0.2156,0.1682790539550303,0.024,0.156,0.48,4.312,-68.9,3.659234892706397,-73.0,-68.0,-63.0,-1378.0,,,,,,0.0,,,,,,0.0,,,,,,0.0
-0.7676,0.12107617436969174,-0.976,-0.762,-0.602,-15.351999999999999,0.5095000000000001,0.19929563467371783,0.226,0.43,0.9,10.190000000000001,0.3883,0.11243891675038496,0.208,0.375,0.582,7.765999999999999,-61.5,4.068169121361598,-71.0,-60.0,-59.0,-1230.0,,,,,,0.0,-98.2,0.4,-99.0,,-98.0,-491.0,,,,,,0.0
-0.7175,0.15211163663572883,-1.048,-0.672,-0.512,-14.35,0.5854999999999999,0.12009308889357458,0.39,0.579,0.794,11.709999999999999,0.45779999999999993,0.2077382006276169,0.102,0.431,1.084,9.155999999999999,-61.15,3.1666228067138027,-67.0,-59.0,-59.0,-1223.0,,,,,,0.0,-99.0,0.0,-99.0,,-99.0,-297.0,,,,,,0.0
-0.6030000000000001,0.11532475883347859,-0.776,-0.653,-0.378,-12.060000000000002,0.6942,0.15304757430289445,0.466,0.6759999999999999,1.058,13.884,0.31379999999999997,0.16094334406865046,-0.014,0.29400000000000004,0.56,6.276,-69.05,2.854382595238417,-72.0,-69.0,-64.0,-1381.0,,,,,,0.0,,,,,,0.0,,,,,,0.0
-0.7664000000000001,0.030381573362813198,-0.8,-0.777,-0.676,-15.328000000000001,0.3475,0.05557292506247985,0.288,0.34,0.534,6.949999999999999,0.5306,0.021429885673983413,0.492,0.53,0.576,10.611999999999998,-69.0,0.6324555320336759,-70.0,-69.0,-68.0,-1380.0,,,,,,0.0,-99.0,0.0,-99.0,,-99.0,-99.0,,,,,,0.0
-0.6296999999999999,0.16744464757047328,-0.808,-0.719,-0.258,-12.594,0.6295999999999999,0.38821468287533895,0.078,0.449,1.67,12.591999999999999,0.4497,0.1623986145261098,-0.008,0.489,0.676,8.994,-68.05,2.1788758569500923,-70.0,-69.0,-64.0,-1361.0,,,,,,0.0,-99.0,0.0,-99.0,,-99.0,-297.0,,,,,,0.0
0.1529,0.182709030975483,-0.11,0.14400000000000002,0.464,3.0580000000000003,0.8520999999999999,0.15115485437127055,0.448,0.895,1.04,17.041999999999998,0.2806,0.18620214821532,-0.242,0.315,0.604,5.612,-63.8,3.8678159211627436,-69.0,-66.0,-58.0,-1276.0,,,,,,0.0,,,,,,0.0,,,,,,0.0
-0.19930000000000003,0.48450522185008493,-0.872,-0.351,1.086,-3.9860000000000007,0.5042,0.4425457716440188,-0.404,0.546,1.546,10.084,0.8023,0.3449320367840598,0.05,0.927,1.436,16.046,-61.0,1.8439088914585775,-64.0,-61.0,-58.0,-1220.0,,,,,,0.0,,,,,,0.0,,,,,,0.0
0.017599999999999998,0.21846427625586756,-0.496,0.08299999999999999,0.336,0.352,0.4452999999999999,0.374520106269343,-0.22,0.395,0.998,8.905999999999999,0.8113000000000001,0.3203786977937203,0.338,0.81,1.408,16.226000000000003,-63.2,2.1354156504062622,-70.0,-62.0,-61.0,-1264.0,,,,,,0.0,,,,,,0.0,,,,,,0.0
-0.11320000000000001,0.1656929690723176,-0.548,-0.10300000000000001,0.21,-2.2640000000000002,0.7723,0.15195298615032213,0.52,0.78,0.994,15.446,0.7352000000000001,0.13608585525321873,0.556,0.7,1.052,14.704,-72.25,2.6433879775772606,-77.0,-71.0,-70.0,-1445.0,,,,,,0.0,,,,,,0.0,,,,,,0.0
-0.1921,0.1637149657178598,-0.552,-0.16799999999999998,0.134,-3.8419999999999996,0.6363,0.19656680798140871,0.238,0.627,1.03,12.725999999999999,0.7281000000000001,0.155538387544683,0.502,0.721,1.02,14.562000000000001,-71.65,3.7719358425084595,-76.0,-74.0,-67.0,-1433.0,,,,,,0.0,,,,,,0.0,,,,,,0.0
-0.11790000000000003,0.23533250944142844,-0.56,-0.206,0.342,-2.3580000000000005,0.9391,0.11852674803604457,0.778,0.922,1.166,18.782,0.18440000000000004,0.2151470195006196,-0.306,0.191,0.53,3.6880000000000006,-69.35,1.9563997546513854,-73.0,-68.0,-68.0,-1387.0,,,,,,0.0,,,,,,0.0,,,,,,0.0
-0.059800000000000006,0.34273540815036896,-0.61,-0.166,0.52,-1.1960000000000002,0.9087000000000002,0.1884571834661656,0.42,0.942,1.304,18.174000000000003,0.2602,0.1444713120311434,-0.084,0.286,0.454,5.204,-72.15,1.9817921182606413,-78.0,-71.0,-70.0,-1443.0,,,,,,0.0,,,,,,0.0,,,,,,0.0
-0.285,0.4413939283678469,-0.89,-0.43,0.51,-5.699999999999999,0.7565000000000001,0.23523849599927305,0.344,0.806,1.25,15.13,0.3054,0.11559256031423476,0.112,0.308,0.568,6.108,-68.7,4.371498598878879,-78.0,-69.0,-64.0,-1374.0,,,,,,0.0,,,,,,0.0,,,,,,0.0
-0.6582,0.14085439290274193,-0.9,-0.6890000000000001,-0.318,-13.164,0.6149000000000001,0.31166165949631985,-0.076,0.618,1.096,12.298000000000002,0.5471,0.21331054826238668,0.098,0.5509999999999999,0.904,10.942,-61.2,2.181742422927143,-64.0,-61.0,-59.0,-1224.0,,,,,,0.0,,,,,,0.0,,,,,,0.0
-0.21469999999999997,0.232940571820368,-0.648,-0.23399999999999999,0.23,-4.294,0.8507,0.1825160540884007,0.486,0.855,1.11,17.014,0.2574,0.33548001430785707,-0.35,0.251,0.766,5.148000000000001,-65.0,3.7682887362833544,-68.0,-68.0,-60.0,-1300.0,,,,,,0.0,,,,,,0.0,,,,,,0.0
-0.7857000000000001,0.25925607032430315,-1.104,-0.9,-0.244,-15.714000000000002,0.43129999999999996,0.18110690213241462,-0.08,0.458,0.796,8.626,0.5689,0.11935740446239605,0.358,0.542,0.862,11.378,-66.8,5.491812087098393,-74.0,-65.0,-59.0,-1336.0,,,,,,0.0,,,,,,0.0,,,,,,0.0
-0.28290000000000004,0.16384684922207082,-0.592,-0.278,0.006,-5.658000000000001,0.7842000000000001,0.11324645689821823,0.548,0.8140000000000001,0.92,15.684000000000003,0.43820000000000003,0.06533880929432369,0.294,0.45,0.526,8.764000000000001,-65.9,1.841195263952197,-70.0,-65.0,-64.0,-1318.0,,,,,,0.0,,,,,,0.0,,,,,,0.0
-0.31449999999999995,0.1447119552766806,-0.85,-0.31,-0.104,-6.289999999999999,0.8846,0.12203458526171997,0.574,0.88,1.154,17.692,0.28269999999999995,0.19562952231194555,-0.158,0.357,0.67,5.653999999999999,-68.35,1.82414363469547,-71.0,-68.0,-66.0,-1367.0,,,,,,0.0,,,,,,0.0,,,,,,0.0
-0.3653,0.16587618876740567,-0.74,-0.344,-0.154,-7.306,0.843,0.13536543133311396,0.518,0.823,1.25,16.86,-0.20070000000000002,0.1680550802564445,-0.464,-0.23,0.188,-4.014,-72.8,2.5612496949731396,-77.0,-73.0,-69.0,-1456.0,,,,,,0.0,,,,,,0.0,,,,,,0.0
-0.6843000000000001,0.22909847227775224,-1.286,-0.651,-0.328,-13.686000000000003,0.5920000000000002,0.16230218729271645,0.254,0.573,0.92,11.840000000000003,-0.1668,0.1884169843724286,-0.554,-0.196,0.134,-3.3360000000000003,-69.4,2.009975124224178,-73.0,-69.0,-66.0,-1388.0,,,,,,0.0,,,,,,0.0,,,,,,0.0
-0.8014999999999999,0.1985294688453077,-1.266,-0.782,-0.506,-16.029999999999998,0.43439999999999995,0.1525471730318199,0.23,0.41600000000000004,0.854,8.687999999999999,0.15739999999999998,0.19646282091021702,-0.304,0.23299999999999998,0.398,3.1479999999999997,-70.6,1.8,-73.0,-70.0,-69.0,-1412.0,,,,,,0.0,-98.0,0.0,-98.0,,-98.0,-392.0,,,,,,0.0
-0.7545,0.22433535165015786,-1.29,-0.649,-0.526,-15.09,0.5932999999999999,0.09086093770152276,0.38,0.594,0.75,11.865999999999998,0.1558,0.16143469267787516,-0.122,0.177,0.412,3.116,-72.8,1.6613247725836147,-74.0,-73.0,-69.0,-1456.0,,,,,,0.0,,,,,,0.0,,,,,,0.0
-0.44010000000000005,0.15556153123442826,-0.724,-0.482,-0.206,-8.802000000000001,0.8503000000000002,0.1242888168742466,0.696,0.818,1.1,17.006000000000004,0.3078,0.07389966170423244,0.176,0.303,0.468,6.156000000000001,-73.2,1.8867962264113207,-76.0,-73.0,-69.0,-1464.0,,,,,,0.0,,,,,,0.0,,,,,,0.0
-0.18109999999999998,0.24894696222287993,-0.44,-0.296,0.262,-3.6219999999999994,0.8640000000000001,0.1771180397362166,0.542,0.802,1.234,17.28,0.4185,0.20381548027566504,0.024,0.504,0.664,8.37,-70.05,1.5960889699512366,-74.0,-70.0,-68.0,-1401.0,,,,,,0.0,,,,,,0.0,,,,,,0.0
