acceleration_x_mean,acceleration_x_std,acceleration_x_min,acceleration_x_median,acceleration_x_max,acceleration_x_sum,acceleration_y_mean,acceleration_y_std,acceleration_y_min,acceleration_y_median,acceleration_y_max,acceleration_y_sum,acceleration_z_mean,acceleration_z_std,acceleration_z_min,acceleration_z_median,acceleration_z_max,acceleration_z_sum,rssi_Kitchen_AP_mean,rssi_Kitchen_AP_std,rssi_Kitchen_AP_min,rssi_Kitchen_AP_median,rssi_Kitchen_AP_max,rssi_Kitchen_AP_sum,rssi_Lounge_AP_mean,rssi_Lounge_AP_std,rssi_Lounge_AP_min,rssi_Lounge_AP_median,rssi_Lounge_AP_max,rssi_Lounge_AP_sum,rssi_Upstairs_AP_mean,rssi_Upstairs_AP_std,rssi_Upstairs_AP_min,rssi_Upstairs_AP_median,rssi_Upstairs_AP_max,rssi_Upstairs_AP_sum,rssi_Study_AP_mean,rssi_Study_AP_std,rssi_Study_AP_min,rssi_Study_AP_median,rssi_Study_AP_max,rssi_Study_AP_sum
0.9061,0.005117616632769599,0.896,0.906,0.918,18.122,-0.3866,0.006452906321960678,-0.4,-0.386,-0.372,-7.732,0.09150000000000001,0.007039176088151228,0.078,0.092,0.104,1.8300000000000003,-82.0,0.0,-82.0,-82.0,-82.0,-1640.0,-79.0,0.0,-79.0,-79.0,-79.0,-1580.0,-81.6,0.4898979485566356,-82.0,-82.0,-81.0,-1632.0,,,,,,0.0
0.9043000000000001,0.006701492371106609,0.886,0.904,0.92,18.086000000000002,-0.3884,0.006468384651518497,-0.398,-0.387,-0.376,-7.768000000000001,0.09870000000000002,0.008056674251823763,0.088,0.096,0.118,1.9740000000000004,,,,,,0.0,-78.4,0.4898979485566356,-79.0,-78.0,-78.0,-1568.0,-82.6,0.4898979485566356,-83.0,-83.0,-82.0,-1652.0,,,,,,0.0
0.9041,0.007112664760833319,0.88,0.905,0.91,18.082,-0.3894,0.008416650165000325,-0.416,-0.388,-0.376,-7.788,0.1015,0.013709485767161361,0.088,0.096,0.152,2.0300000000000002,,,,,,0.0,-78.6,0.4898979485566356,-79.0,-79.0,-78.0,-1572.0,-82.4,0.7999999999999999,-83.0,-83.0,-81.0,-1648.0,,,,,,0.0
0.9027,0.008746999485537891,0.882,0.903,0.918,18.054,-0.3914,0.009572878355019453,-0.414,-0.388,-0.378,-7.828,0.10140000000000002,0.005868560300448485,0.088,0.102,0.112,2.0280000000000005,-83.0,0.0,-83.0,,-83.0,-332.0,-78.2,0.39999999999999997,-79.0,-78.0,-78.0,-1564.0,-81.6,0.4898979485566356,-82.0,-82.0,-81.0,-1632.0,,,,,,0.0
0.9049000000000001,0.008233468284993883,0.888,0.906,0.92,18.098000000000003,-0.3874000000000001,0.017732456118654285,-0.418,-0.385,-0.356,-7.748000000000001,0.08380000000000001,0.01039038016628843,0.072,0.079,0.108,1.6760000000000002,-94.0,0.0,-94.0,,-94.0,-752.0,-83.4,5.571355310873647,-91.0,-85.0,-77.0,-1668.0,-83.0,2.280350850198276,-87.0,-82.0,-81.0,-1660.0,,,,,,0.0
0.9196000000000002,0.013705473359209444,0.888,0.92,0.946,18.392000000000003,-0.35540000000000005,0.010199999999999999,-0.37,-0.354,-0.336,-7.1080000000000005,0.09980000000000003,0.01394130553427476,0.078,0.102,0.128,1.9960000000000004,-98.0,1.0,-99.0,,-97.0,-784.0,-82.2,3.429285639896449,-88.0,-81.0,-79.0,-1644.0,-83.6,1.0198039027185568,-85.0,-84.0,-82.0,-1672.0,,,,,,0.0
0.9138000000000002,0.0071246052522227574,0.896,0.912,0.928,18.276000000000003,-0.36729999999999996,0.008701149349367596,-0.382,-0.368,-0.354,-7.345999999999999,0.10810000000000002,0.006433506042586733,0.094,0.11,0.12,2.1620000000000004,-100.5,2.29128784747792,-104.0,,-98.0,-1608.0,-79.4,1.3564659966250536,-82.0,-79.0,-78.0,-1588.0,-85.6,4.223742416388576,-94.0,-84.0,-83.0,-1712.0,,,,,,0.0
0.9129473684210526,0.008319119919359685,0.896,0.91,0.928,17.346,-0.3674736842105263,0.008916976246125217,-0.386,-0.368,-0.352,-6.981999999999999,0.10294736842105263,0.010570433861585847,0.086,0.104,0.124,1.9560000000000002,,,,,,0.0,-87.26315789473684,2.1236043159823175,-90.0,-88.0,-84.0,-1658.0,-86.3157894736842,5.01631686629215,-96.0,-84.0,-83.0,-1640.0,,,,,,0.0
0.9108000000000003,0.004621688003316541,0.902,0.911,0.92,18.216000000000005,-0.37310000000000004,0.006015812497078018,-0.382,-0.372,-0.36,-7.462000000000001,0.10030000000000001,0.00577148161220323,0.092,0.102,0.112,2.0060000000000002,-94.2,4.721581655900207,-102.0,,-91.0,-1413.0,-89.8,0.39999999999999997,-90.0,-90.0,-89.0,-1796.0,-84.0,0.0,-84.0,-84.0,-84.0,-1680.0,,,,,,0.0
0.9088000000000003,0.00868101376568429,0.886,0.91,0.924,18.176000000000005,-0.37250000000000005,0.007290404652692476,-0.392,-0.371,-0.36,-7.450000000000001,0.10280000000000003,0.006968500556073738,0.092,0.104,0.112,2.0560000000000005,-92.8125,0.8076779989575054,-94.0,,-91.0,-1485.0,-88.0,1.118033988749895,-90.0,,-86.0,-1408.0,-85.0,1.5491933384829668,-88.0,-84.0,-84.0,-1700.0,,,,,,0.0
0.9106,0.008651011501552876,0.878,0.912,0.92,18.212,-0.3698,0.006630233781700316,-0.382,-0.37,-0.356,-7.396000000000001,0.10080000000000003,0.0057061370470748414,0.092,0.101,0.112,2.0160000000000005,-96.4375,1.8016919131749467,-99.0,,-94.0,-1543.0,-85.05,0.21794494717703367,-86.0,-85.0,-85.0,-1701.0,-88.65,6.428646824954689,-97.0,-84.0,-83.0,-1773.0,,,,,,0.0
0.9148000000000002,0.006523802572120042,0.902,0.913,0.93,18.296000000000003,-0.36340000000000006,0.007323933369440228,-0.378,-0.362,-0.348,-7.268000000000001,0.10530000000000002,0.005666568626602877,0.094,0.103,0.114,2.1060000000000003,-99.8,0.4,-100.0,,-99.0,-499.0,-83.85,0.4769696007084729,-85.0,-84.0,-83.0,-1677.0,-83.6,0.4898979485566356,-84.0,-84.0,-83.0,-1672.0,,,,,,0.0
0.9131000000000002,0.005566866263886718,0.902,0.912,0.926,18.262000000000004,-0.3663,0.006427285585688571,-0.378,-0.367,-0.354,-7.3260000000000005,0.10560000000000003,0.0077097341069585525,0.096,0.104,0.126,2.1120000000000005,-99.0,0.0,-99.0,,-99.0,-297.0,-84.4,0.7999999999999999,-86.0,-84.0,-84.0,-1688.0,-84.6,1.7435595774162693,-88.0,-84.0,-83.0,-1692.0,,,,,,0.0
0.9146000000000003,0.008674099376880585,0.888,0.918,0.926,18.292000000000005,-0.3599,0.008036790404135224,-0.372,-0.36,-0.338,-7.198,0.09720000000000002,0.00872696969170857,0.08,0.096,0.12,1.9440000000000004,-99.66666666666667,0.4714045207910317,-100.0,,-99.0,-1196.0,-84.0,0.0,-84.0,-84.0,-84.0,-1680.0,-83.4,0.4898979485566356,-84.0,-83.0,-83.0,-1668.0,,,,,,0.0
0.9126,0.004340506882842144,0.904,0.913,0.92,18.252,-0.36490000000000006,0.005708765190476839,-0.378,-0.365,-0.354,-7.298000000000001,0.10270000000000001,0.011194194924156003,0.082,0.102,0.132,2.0540000000000003,-98.125,0.6959705453537527,-99.0,,-97.0,-1570.0,-85.4,1.42828568570857,-88.0,-86.0,-84.0,-1708.0,-84.4,1.3564659966250536,-87.0,-84.0,-83.0,-1688.0,,,,,,0.0
0.9121,0.01090825375575762,0.882,0.913,0.926,18.242,-0.36,0.007536577472566716,-0.368,-0.36,-0.344,-7.2,0.09620000000000002,0.00903105752390051,0.08,0.097,0.114,1.9240000000000004,-92.4,1.8547236990991407,-97.0,-92.0,-89.0,-1848.0,-87.55,1.1608186766243898,-89.0,-87.0,-86.0,-1751.0,-83.95,0.21794494717703367,-84.0,-84.0,-83.0,-1679.0,,,,,,0.0
0.9169000000000003,0.013152566289511718,0.888,0.919,0.942,18.338000000000005,-0.3585,0.018109389829588405,-0.398,-0.356,-0.33,-7.17,0.09470000000000002,0.016760369924318497,0.054,0.094,0.132,1.8940000000000003,-90.95,4.043204174908807,-97.0,-90.0,-86.0,-1819.0,-82.7,3.4219877264537346,-89.0,-81.0,-79.0,-1654.0,-82.5,1.396424004376894,-84.0,-82.0,-81.0,-1650.0,,,,,,0.0
0.8854,0.012807810117268302,0.86,0.886,0.914,17.708,-0.4226000000000001,0.032784752553588085,-0.468,-0.429,-0.346,-8.452000000000002,0.035100000000000006,0.017070149384232115,-0.004,0.040999999999999995,0.056,0.7020000000000002,-93.75,3.491060010942235,-98.0,,-86.0,-1125.0,-84.55,6.822572828486333,-100.0,-83.0,-79.0,-1691.0,-92.05,5.945376354781924,-100.0,-89.0,-82.0,-1841.0,,,,,,0.0
0.8869,0.010853110153315509,0.862,0.889,0.902,17.738,-0.42869999999999997,0.008883130078975548,-0.458,-0.425,-0.418,-8.574,0.0258,0.01405560386465128,-0.004,0.031,0.048,0.516,-94.91666666666667,3.7739972914080844,-100.0,,-91.0,-1139.0,-89.375,5.786568499551353,-100.0,,-84.0,-715.0,-81.15,2.7436289836637897,-89.0,-80.0,-78.0,-1623.0,,,,,,0.0
0.8965,0.02715050644094876,0.846,0.897,0.962,17.93,-0.39549999999999996,0.040392449789533685,-0.458,-0.405,-0.318,-7.909999999999999,0.0382,0.026645074591751475,-0.026,0.046,0.072,0.764,-91.0,4.96655480858378,-95.0,,-84.0,-1092.0,-84.1,2.8618176042508368,-93.0,-84.0,-81.0,-1682.0,-81.6,2.4979991993593593,-86.0,-80.0,-78.0,-1632.0,,,,,,0.0
0.9095000000000001,0.038594688753765066,0.83,0.902,0.992,18.19,-0.36990000000000006,0.03765355228925951,-0.434,-0.364,-0.302,-7.3980000000000015,0.10190000000000002,0.03785485437826964,0.006,0.113,0.16,2.0380000000000003,-93.375,5.0974871260259205,-98.0,,-87.0,-747.0,-84.55,3.8661996844446618,-91.0,-84.0,-79.0,-1691.0,-89.1,1.3379088160259651,-91.0,-89.0,-86.0,-1782.0,,,,,,0.0
0.8917894736842105,0.09512959523301188,0.724,0.914,1.042,16.944,-0.4291578947368421,0.09688694614038557,-0.628,-0.434,-0.242,-8.154,0.05305263157894737,0.09304977371177016,-0.1,0.072,0.242,1.008,-95.6842105263158,3.3568881513898896,-100.0,-97.0,-87.0,-1818.0,-87.84210526315789,8.034551426215318,-102.0,-84.0,-80.0,-1669.0,-87.89473684210526,10.212967695105778,-105.0,-85.0,-77.0,-1670.0,,,,,,0.0
0.9195,0.08895813622148342,0.758,0.915,1.084,18.39,-0.3579,0.16862677723303612,-0.702,-0.40700000000000003,0.006,-7.158,0.022099999999999998,0.20122472512094533,-0.28,-0.026000000000000002,0.646,0.44199999999999995,-88.0,6.648308055437865,-97.0,-86.0,-78.0,-1760.0,-89.875,2.117634293262177,-93.0,,-87.0,-1438.0,-81.25,5.107592387808565,-91.0,-79.0,-76.0,-1625.0,,,,,,0.0
0.8876,0.15400727255555177,0.626,0.914,1.118,17.752,-0.4398000000000001,0.17537263184431032,-0.99,-0.43,-0.12,-8.796000000000001,0.0512,0.17582764287790473,-0.254,0.043000000000000003,0.36,1.024,-86.15,2.7617928959282954,-90.0,-86.0,-82.0,-1723.0,-86.2,4.06939798987516,-93.0,-87.0,-79.0,-1724.0,-89.05,4.652687395473717,-95.0,-88.0,-76.0,-1781.0,,,,,,0.0
0.8794000000000001,0.11141292564150715,0.696,0.881,1.136,17.588,-0.42590000000000006,0.10243724908450051,-0.654,-0.382,-0.258,-8.518,-0.016200000000000003,0.15559935732515093,-0.284,-0.011,0.3,-0.32400000000000007,-93.2,2.891366458960192,-98.0,-94.0,-90.0,-1864.0,-78.25,4.4483142874576656,-85.0,-77.0,-72.0,-1565.0,-84.1,8.086408349817612,-98.0,-81.0,-75.0,-1682.0,,,,,,0.0
0.8854736842105262,0.11983294003739348,0.706,0.87,1.158,16.823999999999998,-0.4378947368421053,0.09800423983140091,-0.654,-0.416,-0.296,-8.32,0.04421052631578948,0.1383768991016425,-0.206,0.054,0.352,0.8400000000000001,-96.5625,3.061224224064614,-101.0,,-93.0,-1545.0,-82.8,6.803920438492307,-92.0,,-72.0,-1242.0,-84.36842105263158,2.887550889335832,-89.0,-84.0,-81.0,-1603.0,,,,,,0.0
0.8968000000000002,0.05442205435299187,0.824,0.892,1.048,17.936000000000003,-0.38960000000000006,0.1998915706076672,-0.602,-0.446,0.39,-7.792000000000001,0.019,0.08034550391901217,-0.136,0.01,0.216,0.38,-90.52631578947368,5.1643353987520335,-98.0,,-84.0,-1720.0,-81.875,2.595067436503337,-85.0,,-78.0,-1310.0,-85.76470588235294,5.504323560136275,-94.0,,-80.0,-1458.0,,,,,,0.0
0.9104000000000001,0.08489899881624048,0.798,0.88,1.116,18.208000000000002,-0.37770000000000004,0.083766998274977,-0.57,-0.372,-0.264,-7.554000000000001,0.0905,0.14741896078863123,-0.288,0.139,0.274,1.8099999999999998,-86.95,5.625611077918558,-96.0,-85.0,-81.0,-1739.0,-84.4375,3.999511688944039,-90.0,,-78.0,-1351.0,-84.89473684210526,4.253725758142474,-90.0,,-78.0,-1613.0,,,,,,0.0
0.8558999999999999,0.13889920806109732,0.62,0.823,1.106,17.118,-0.4939,0.07671108133770506,-0.64,-0.496,-0.36,-9.878,0.0794,0.1822032930547634,-0.178,0.091,0.384,1.588,-74.4,8.309031231136395,-90.0,-70.0,-68.0,-1488.0,-83.125,1.4947825928876748,-85.0,,-79.0,-1330.0,-74.75,3.0475399915341552,-83.0,-74.0,-71.0,-1495.0,,,,,,0.0
0.9296000000000001,0.13820795924982035,0.72,0.904,1.212,18.592000000000002,-0.3738,0.11921224769292793,-0.544,-0.365,-0.206,-7.476000000000001,0.16360000000000002,0.12568786735401313,-0.024,0.154,0.408,3.2720000000000002,-78.3,5.050742519669757,-85.0,-79.0,-71.0,-1566.0,-77.0,4.147288270665544,-85.0,-77.0,-72.0,-1540.0,-83.05,4.7378792724171435,-88.0,-83.0,-76.0,-1661.0,,,,,,0.0
0.8325000000000001,0.2146232745999371,0.558,0.763,1.294,16.650000000000002,-0.5213,0.128427839661033,-0.834,-0.539,-0.232,-10.426,0.1337,0.3433425548923407,-0.356,0.089,0.652,2.6740000000000004,-92.25,7.959533068382005,-104.0,,-75.0,-1107.0,-70.85,3.2752862470324637,-77.0,-69.0,-68.0,-1417.0,-93.625,6.854514935427598,-102.0,,-83.0,-749.0,,,,,,0.0
0.7051000000000001,0.10181055937377026,0.51,0.692,0.992,14.102,-0.5793,0.09488366561215897,-0.784,-0.592,-0.37,-11.586,0.47570000000000007,0.1498042389253388,0.096,0.507,0.732,9.514000000000001,-104.0,0.0,-104.0,,-104.0,-104.0,-69.8,2.7129319932501073,-76.0,-69.0,-68.0,-1396.0,-94.88888888888889,3.784308081316978,-102.0,,-91.0,-854.0,,,,,,0.0
0.7277000000000001,0.11572946902150723,0.466,0.734,0.92,14.554000000000002,-0.5420999999999999,0.11340101410481301,-0.826,-0.546,-0.334,-10.841999999999999,0.47000000000000003,0.12973973947869633,0.064,0.479,0.688,9.4,-99.28571428571429,1.979486637221574,-101.0,,-97.0,-695.0,-75.25,1.6085707942145413,-78.0,-75.0,-73.0,-1505.0,-92.53333333333333,2.7776888874666215,-97.0,,-90.0,-1388.0,,,,,,0.0
0.42969999999999997,0.1556859338540255,0.162,0.43,0.706,8.594,-0.8421000000000001,0.17435764967445508,-1.134,-0.871,-0.434,-16.842000000000002,0.19870000000000002,0.28116420469184905,-0.398,0.199,0.786,3.974,-96.38461538461539,3.952379254973886,-101.0,,-91.0,-1253.0,-74.35,6.271164166245371,-84.0,-71.0,-68.0,-1487.0,-88.85,2.535251466817444,-92.0,-90.0,-84.0,-1777.0,,,,,,0.0
0.6403999999999999,0.08652074895653643,0.432,0.656,0.83,12.807999999999998,-0.7455,0.1106867200706571,-0.956,-0.728,-0.57,-14.91,-0.14489999999999997,0.10240991162968555,-0.48,-0.137,-0.018,-2.8979999999999997,-99.54545454545455,4.09797369803078,-103.0,,-93.0,-1095.0,-71.75,2.426417111710186,-76.0,-71.0,-68.0,-1435.0,-92.1,3.284813541131368,-97.0,-93.0,-88.0,-1842.0,,,,,,0.0
0.6433,0.06774149393097263,0.518,0.636,0.792,12.866,-0.7558,0.15890110131776933,-1.236,-0.755,-0.456,-15.116,0.1079,0.16167680724210262,-0.104,0.07500000000000001,0.402,2.158,-96.75,2.165063509461097,-98.0,,-93.0,-387.0,-70.9,0.6244997998398398,-73.0,-71.0,-70.0,-1418.0,-89.25,2.4672859582950655,-97.0,-89.0,-86.0,-1785.0,,,,,,0.0
0.7885,0.11639909793464896,0.656,0.746,0.944,15.77,-0.6214,0.0965776371630617,-0.882,-0.588,-0.506,-12.427999999999999,0.019700000000000002,0.07267812600776109,-0.158,0.006,0.134,0.394,-93.9375,4.866579265767691,-103.0,,-89.0,-1503.0,-72.55,3.278337993557101,-79.0,-71.0,-70.0,-1451.0,-88.9,6.163602842493991,-97.0,-89.0,-81.0,-1778.0,,,,,,0.0
0.8992000000000001,0.06393246436670495,0.792,0.892,0.998,17.984,-0.3743,0.07401155315219377,-0.464,-0.383,-0.232,-7.486000000000001,0.2129,0.11570561784114029,0.024,0.22299999999999998,0.39,4.258,-92.23076923076923,3.3317550504165716,-103.0,,-90.0,-1199.0,-73.4,2.0099751242241783,-76.0,-74.0,-70.0,-1468.0,-88.11764705882354,2.8673076722244564,-92.0,,-82.0,-1498.0,,,,,,0.0
0.9761000000000001,0.11738564648201245,0.818,0.951,1.23,19.522000000000002,-0.33440000000000003,0.09963051741308984,-0.498,-0.352,-0.17,-6.688000000000001,0.1716,0.15358203019884845,-0.066,0.14300000000000002,0.412,3.432,,,,,,0.0,-70.2,1.8330302779823358,-76.0,-70.0,-68.0,-1404.0,-92.63636363636364,2.9931050242098776,-96.0,,-89.0,-1019.0,,,,,,0.0
0.9629999999999999,0.18836188574125073,0.732,0.872,1.31,19.259999999999998,-0.2855,0.08825616125801077,-0.394,-0.294,-0.144,-5.709999999999999,0.2004,0.08429851718743338,0.076,0.199,0.352,4.008,,,,,,0.0,-69.1,1.729161646579058,-72.0,-69.0,-67.0,-1382.0,-93.0,0.0,-93.0,,-93.0,-93.0,,,,,,0.0
0.9652,0.2523302597787273,0.63,0.899,1.544,19.304,-0.3408000000000001,0.1794874926004595,-0.686,-0.275,-0.074,-6.816000000000002,0.12090000000000001,0.1758265907080041,-0.164,0.14,0.414,2.418,,,,,,0.0,-70.9,1.4106735979665883,-73.0,-71.0,-69.0,-1418.0,,,,,,0.0,,,,,,0.0
0.8132000000000001,0.7417429204245901,-0.392,0.7789999999999999,2.16,16.264000000000003,-0.2266,0.14002299811102462,-0.424,-0.239,0.03,-4.532,0.1675,0.12694703620014133,-0.148,0.183,0.47,3.35,,,,,,0.0,-71.3,1.3820274961085253,-74.0,-71.0,-70.0,-1426.0,,,,,,0.0,,,,,,0.0
1.19,0.7116802652877203,0.528,0.886,3.074,23.8,-0.25830000000000003,0.11154420648334902,-0.526,-0.229,-0.104,-5.166,0.10679999999999998,0.10949776253421802,-0.282,0.119,0.296,2.1359999999999997,,,,,,0.0,-70.25,1.6393596310755,-74.0,-70.0,-68.0,-1405.0,,,,,,0.0,,,,,,0.0
0.9471,0.8885427339188589,-0.248,0.758,3.15,18.942,-0.1046,0.11392822301782819,-0.32,-0.098,0.21,-2.092,0.15730000000000002,0.17137943283836599,-0.43,0.159,0.566,3.1460000000000004,,,,,,0.0,-71.1,2.930870177950569,-75.0,-72.0,-67.0,-1422.0,,,,,,0.0,,,,,,0.0
0.9293000000000001,0.035912532631380924,0.846,0.934,0.974,18.586000000000002,-0.22960000000000003,0.042499882352778344,-0.304,-0.226,-0.136,-4.5920000000000005,0.177,0.031019348800385867,0.086,0.186,0.208,3.54,,,,,,0.0,-74.7,2.847806173179629,-79.0,-73.0,-72.0,-1494.0,,,,,,0.0,,,,,,0.0
0.9364999999999999,0.019161158628851205,0.91,0.938,0.99,18.729999999999997,-0.2725,0.025960546989614836,-0.324,-0.274,-0.232,-5.45,0.173,0.02293032926061028,0.114,0.176,0.208,3.46,,,,,,0.0,-73.3,0.9539392014169457,-75.0,-73.0,-72.0,-1466.0,,,,,,0.0,,,,,,0.0
0.9414999999999999,0.026674894563990293,0.872,0.934,0.994,18.83,-0.2982,0.048132733144919164,-0.386,-0.313,-0.212,-5.964,0.10270000000000001,0.029538280247841105,0.048,0.112,0.158,2.0540000000000003,,,,,,0.0,-70.35,3.5110539728121526,-75.0,-70.0,-64.0,-1407.0,,,,,,0.0,,,,,,0.0
0.9602999999999998,0.10755514864477665,0.824,0.94,1.234,19.205999999999996,-0.33849999999999997,0.06093233952508306,-0.452,-0.319,-0.232,-6.77,0.09169999999999999,0.09531269590143802,-0.052,0.12,0.23,1.8339999999999999,,,,,,0.0,-65.0,1.2649110640673518,-67.0,-64.0,-64.0,-1300.0,-101.0,0.0,-101.0,,-101.0,-303.0,,,,,,0.0
1.0103,0.18305657595399297,0.76,0.968,1.464,20.206,-0.30089999999999995,0.1321445799115499,-0.528,-0.33699999999999997,-0.088,-6.017999999999999,0.24530000000000002,0.13111258520828575,0.014,0.289,0.422,4.906000000000001,-100.0,0.0,-100.0,,-100.0,-300.0,-67.1,1.5459624833740306,-70.0,-67.0,-64.0,-1342.0,-101.0,0.0,-101.0,,-101.0,-101.0,,,,,,0.0
0.9358999999999998,0.17853568270796738,0.696,0.921,1.25,18.717999999999996,-0.343,0.17535278726042539,-0.654,-0.346,-0.046,-6.86,0.2468,0.11619879517447675,0.024,0.302,0.4,4.936,-98.625,2.8256636388643286,-101.0,,-95.0,-789.0,-67.35,2.5548972582082436,-72.0,-66.0,-65.0,-1347.0,-97.52631578947368,3.8301906102442635,-102.0,,-94.0,-1853.0,,,,,,0.0
0.9957500000000001,0.08416018951974862,0.85,1.004,1.112,15.932000000000002,-0.302375,0.13413280499191838,-0.52,-0.288,-0.114,-4.838,0.148625,0.15407420087412427,-0.106,0.127,0.432,2.378,-95.0,0.0,-95.0,,-95.0,-95.0,-65.5,1.5,-67.0,-65.5,-64.0,-1048.0,-99.0,2.0,-100.0,,-95.0,-495.0,,,,,,0.0
0.9502,0.24789586523377105,0.654,0.845,1.564,19.004,-0.3275,0.13464007575755443,-0.656,-0.314,-0.064,-6.550000000000001,0.15749999999999997,0.12993979375079828,0.018,0.11099999999999999,0.51,3.1499999999999995,,,,,,0.0,-73.3,2.882707061079915,-76.0,-75.0,-67.0,-1466.0,-99.5,2.5,-102.0,,-97.0,-796.0,,,,,,0.0
1.0386000000000002,0.3098813321257026,0.626,1.004,1.512,20.772000000000006,-0.3488,0.2076510534526613,-0.666,-0.304,-0.05,-6.976,0.2172,0.1299421409705104,0.048,0.23299999999999998,0.51,4.344,,,,,,0.0,-72.65,3.380458548777074,-79.0,-72.0,-69.0,-1453.0,,,,,,0.0,,,,,,0.0
0.49429999999999996,0.6052963819485458,-0.25,0.441,1.496,9.886,-0.7325,0.22228798887929146,-1.296,-0.626,-0.436,-14.65,0.3313,0.09211357120424764,0.088,0.377,0.422,6.6259999999999994,,,,,,0.0,-74.3,2.882707061079915,-78.0,-74.0,-70.0,-1486.0,,,,,,0.0,,,,,,0.0
-0.4307999999999999,0.23874454967600833,-0.81,-0.428,-0.046,-8.615999999999998,-0.6622,0.1593184232912189,-0.966,-0.646,-0.386,-13.244,0.5605000000000001,0.20345601490248455,0.276,0.513,1.054,11.210000000000003,-101.0,0.0,-101.0,,-101.0,-404.0,-70.2,1.3266499161421597,-72.0,-70.0,-68.0,-1404.0,,,,,,0.0,,,,,,0.0
-0.06190000000000001,0.023267788893661552,-0.12,-0.057,-0.032,-1.2380000000000002,-0.8231999999999999,0.09558953917662748,-0.952,-0.843,-0.606,-16.464,0.5557,0.06525726013249407,0.408,0.574,0.638,11.113999999999999,,,,,,0.0,-68.55,2.8013389655662877,-75.0,-67.0,-67.0,-1371.0,-96.10526315789474,4.447290563005812,-104.0,,-93.0,-1826.0,,,,,,0.0
-0.3611,0.2780269591244705,-0.686,-0.388,0.636,-7.2219999999999995,-0.5966,0.39566404941566274,-1.17,-0.617,0.496,-11.932,0.6309999999999999,0.30954644239596746,0.352,0.5569999999999999,1.66,12.619999999999997,,,,,,0.0,-69.35,3.8506492958980307,-76.0,-69.0,-65.0,-1387.0,-95.6,1.2,-98.0,,-95.0,-478.0,,,,,,0.0
-0.11869999999999999,0.4352012293181167,-0.586,-0.273,1.104,-2.3739999999999997,-0.6562999999999999,0.15081150486617392,-1.104,-0.64,-0.442,-13.125999999999998,0.5488999999999999,0.14065059544843742,0.248,0.6,0.758,10.977999999999998,,,,,,0.0,-77.25,1.3369741957120937,-79.0,-78.0,-75.0,-1545.0,,,,,,0.0,,,,,,0.0
0.9843999999999999,0.13812979403445153,0.716,0.973,1.312,19.688,-0.42989999999999995,0.19994646783576847,-0.89,-0.33199999999999996,-0.202,-8.597999999999999,0.1723,0.09672905458030695,-0.026,0.182,0.318,3.446,-95.0,0.0,-95.0,,-95.0,-380.0,-74.2,2.9597297173897483,-79.0,-72.0,-72.0,-1484.0,,,,,,0.0,,,,,,0.0
0.952,0.14703741020570238,0.8,0.911,1.408,19.04,-0.29080000000000006,0.09604040816239798,-0.466,-0.278,-0.154,-5.816000000000001,0.20350000000000001,0.07946288441782112,0.08,0.185,0.358,4.07,,,,,,0.0,-67.9,2.1886068628239292,-75.0,-68.0,-65.0,-1358.0,-102.0,3.4641016151377544,-105.0,,-98.0,-714.0,,,,,,0.0
0.9693684210526315,0.07481922812691218,0.802,0.99,1.062,18.418,-0.2521052631578948,0.10138716556211749,-0.478,-0.216,-0.144,-4.790000000000001,0.16326315789473683,0.09884855088002216,0.038,0.158,0.316,3.102,,,,,,0.0,-71.94736842105263,2.282050883018821,-74.0,-73.0,-68.0,-1367.0,-98.0,0.0,-98.0,,-98.0,-98.0,,,,,,0.0
0.9413,0.045432477370268946,0.866,0.928,1.074,18.826,-0.25060000000000004,0.04023481079861069,-0.308,-0.265,-0.178,-5.0120000000000005,0.1277,0.022902183302034765,0.078,0.126,0.166,2.5540000000000003,,,,,,0.0,-72.0,1.8973665961010275,-74.0,-72.0,-69.0,-1440.0,,,,,,0.0,,,,,,0.0
0.9494999999999999,0.037415905708668866,0.886,0.945,1.026,18.99,-0.24569999999999997,0.07577935074939611,-0.35,-0.259,-0.118,-4.914,0.20220000000000002,0.017842645543752755,0.158,0.206,0.23,4.0440000000000005,,,,,,0.0,-69.1,2.165640782770771,-72.0,-69.0,-66.0,-1382.0,,,,,,0.0,,,,,,0.0
0.9556000000000001,0.047756046737559836,0.856,0.964,1.026,19.112000000000002,-0.25420000000000004,0.03412271970403297,-0.314,-0.254,-0.194,-5.0840000000000005,0.15680000000000002,0.029033773437154183,0.108,0.164,0.2,3.1360000000000006,,,,,,0.0,-69.8,1.98997487421324,-74.0,-69.0,-68.0,-1396.0,,,,,,0.0,,,,,,0.0
0.9462999999999999,0.0882026643588503,0.8,0.942,1.16,18.926,-0.24400000000000005,0.11461413525390314,-0.466,-0.201,-0.098,-4.880000000000001,0.2468,0.07389560203422123,0.108,0.247,0.356,4.936,,,,,,0.0,-71.6,2.0591260281974,-75.0,-70.5,-70.0,-1432.0,,,,,,0.0,,,,,,0.0
0.9321999999999999,0.060728576469401954,0.87,0.906,1.078,18.644,-0.3231,0.039219765425101666,-0.404,-0.327,-0.256,-6.462,0.1698,0.16061867886394782,-0.08,0.176,0.364,3.396,,,,,,0.0,-65.4,3.7735924528226414,-70.0,-66.0,-58.0,-1308.0,,,,,,0.0,,,,,,0.0
0.9333000000000002,0.093270091669302,0.78,0.902,1.15,18.666000000000004,-0.3448,0.06928318699367113,-0.458,-0.346,-0.234,-6.896,0.1803,0.12824862572363105,-0.016,0.191,0.334,3.606,-104.0,0.0,-104.0,,-104.0,-208.0,-65.7,3.2264531609803355,-69.0,-67.0,-58.0,-1314.0,-99.66666666666667,1.8856180831641267,-101.0,,-97.0,-598.0,,,,,,0.0
0.9581000000000003,0.10016681087066713,0.798,0.967,1.286,19.162000000000006,-0.32880000000000004,0.09024499986148816,-0.488,-0.304,-0.192,-6.5760000000000005,0.18330000000000002,0.09878719552654586,0.028,0.19,0.328,3.6660000000000004,-104.0,0.0,-104.0,,-104.0,-624.0,-65.4,1.42828568570857,-67.0,-65.5,-63.0,-1308.0,-92.33333333333333,4.2295258468165065,-99.0,,-88.0,-1108.0,,,,,,0.0
0.9274000000000001,0.07851140044604987,0.838,0.908,1.16,18.548000000000002,-0.28690000000000004,0.06930072149696567,-0.416,-0.277,-0.168,-5.738000000000001,0.21269999999999997,0.09786577542736787,-0.01,0.241,0.326,4.254,,,,,,0.0,-67.6,2.9393876913398134,-73.0,-66.5,-65.0,-1352.0,-98.33333333333333,0.4714045207910317,-99.0,,-98.0,-590.0,,,,,,0.0
0.9475999999999999,0.05000639959045242,0.886,0.943,1.094,18.951999999999998,-0.29390000000000005,0.043078881136816904,-0.36,-0.296,-0.17,-5.878000000000001,0.20779999999999998,0.0575670044383065,0.134,0.214,0.31,4.156,,,,,,0.0,-68.9,0.8306623862918073,-70.0,-69.0,-68.0,-1378.0,,,,,,0.0,,,,,,0.0
0.937,0.03497713538870785,0.864,0.929,1.0,18.740000000000002,-0.22949999999999998,0.018877234967017816,-0.264,-0.226,-0.178,-4.59,0.2507,0.06435301080757605,0.15,0.247,0.348,5.013999999999999,,,,,,0.0,-71.0,1.0,-72.0,-71.0,-70.0,-1420.0,,,,,,0.0,,,,,,0.0
0.9118,0.03476722594628452,0.856,0.901,0.998,18.236,-0.2874,0.05076652440339007,-0.392,-0.282,-0.186,-5.748,0.2919,0.03360044642560571,0.23,0.29,0.35,5.838,,,,,,0.0,-72.5,1.3601470508735443,-74.0,-73.0,-69.0,-1450.0,,,,,,0.0,,,,,,0.0
0.9181000000000001,0.054514126609531234,0.83,0.907,1.032,18.362000000000002,-0.31839999999999996,0.04091258974936687,-0.392,-0.319,-0.248,-6.367999999999999,0.2283,0.07690325090657742,0.104,0.26,0.312,4.566,,,,,,0.0,-70.8,2.7129319932501073,-76.0,-69.0,-69.0,-1416.0,,,,,,0.0,,,,,,0.0
0.8633000000000001,0.09231310849494778,0.632,0.881,1.008,17.266000000000002,-0.2713,0.14734622492619212,-0.45,-0.281,0.05,-5.425999999999999,0.20950000000000002,0.13211188440106364,0.04,0.155,0.4,4.19,,,,,,0.0,-69.1,3.144837038703277,-75.0,-68.5,-66.0,-1382.0,,,,,,0.0,,,,,,0.0
1.044,0.07118426792487227,0.944,1.04,1.19,20.88,0.034699999999999995,0.0831102280107569,-0.154,0.066,0.134,0.694,0.018200000000000004,0.057204545273955285,-0.042,-0.01,0.12,0.3640000000000001,,,,,,0.0,-70.9,2.1656407827707715,-74.0,-71.0,-68.0,-1418.0,,,,,,0.0,,,,,,0.0
0.9769,0.01696437443585824,0.95,0.973,1.01,19.538,0.0347,0.018091710809097078,-0.002,0.036,0.076,0.6940000000000001,-0.03450000000000001,0.010878878618681247,-0.052,-0.032,-0.016,-0.6900000000000002,,,,,,0.0,-69.5,0.806225774829855,-71.0,-69.5,-68.0,-1390.0,,,,,,0.0,,,,,,0.0
0.9751578947368422,0.017702997539503208,0.936,0.978,0.994,18.528000000000002,-0.02,0.021918509361532296,-0.048,-0.02,0.024,-0.38,-0.03473684210526316,0.011520426277123958,-0.05,-0.036,0.006,-0.6600000000000001,,,,,,0.0,-68.21052631578948,0.4076824574955176,-69.0,-68.0,-68.0,-1296.0,,,,,,0.0,,,,,,0.0
0.9292999999999999,0.26444150581933995,0.254,1.01,1.286,18.586,-0.3094,0.21009721559316297,-0.642,-0.266,-0.036,-6.188000000000001,-0.006900000000000001,0.04386103053964875,-0.066,-0.020999999999999998,0.08,-0.138,,,,,,0.0,-71.8,1.5999999999999999,-74.0,-72.0,-68.0,-1436.0,,,,,,0.0,,,,,,0.0
0.07180000000000002,0.033099244704373545,0.016,0.064,0.166,1.4360000000000004,-0.9339999999999999,0.09543374665180027,-1.04,-0.958,-0.622,-18.68,0.09290000000000001,0.0171286310019219,0.062,0.094,0.136,1.8580000000000003,,,,,,0.0,-70.8,1.16619037896906,-72.0,-71.0,-68.0,-1416.0,,,,,,0.0,,,,,,0.0
0.1075,0.01772991821752148,0.078,0.106,0.142,2.15,-0.9725000000000001,0.02309004114331545,-1.018,-0.975,-0.936,-19.450000000000003,0.0632,0.02666383318279651,0.012,0.062,0.124,1.2640000000000002,,,,,,0.0,-68.6,0.4898979485566356,-69.0,-69.0,-68.0,-1372.0,,,,,,0.0,,,,,,0.0
0.1255,0.015822452401571634,0.096,0.124,0.152,2.51,-0.9703999999999999,0.01241933975700803,-0.994,-0.969,-0.946,-19.407999999999998,0.055700000000000006,0.01680803379339773,0.024,0.052000000000000005,0.088,1.114,,,,,,0.0,-68.4,0.4898979485566356,-69.0,-68.0,-68.0,-1368.0,,,,,,0.0,,,,,,0.0
0.1385,0.00891908067011393,0.12,0.14,0.156,2.7700000000000005,-0.9529,0.03319322219972023,-0.98,-0.96,-0.834,-19.058,0.058600000000000006,0.016469365500832143,0.034,0.056,0.112,1.1720000000000002,,,,,,0.0,-67.2,0.8717797887081347,-68.0,-67.5,-66.0,-1344.0,,,,,,0.0,,,,,,0.0
0.6034999999999998,0.3055957296822061,0.198,0.703,0.972,12.069999999999997,-0.7295999999999999,0.12878757704064472,-0.948,-0.756,-0.48,-14.591999999999999,0.12110000000000001,0.0543303782427474,0.038,0.11499999999999999,0.21,2.422,,,,,,0.0,-70.9,2.507987240796891,-75.0,-71.0,-66.0,-1418.0,,,,,,0.0,,,,,,0.0
0.8114000000000001,0.03873551342114881,0.72,0.8140000000000001,0.914,16.228,-0.5752,0.043152751940055904,-0.69,-0.569,-0.514,-11.504000000000001,0.1598,0.035383046787974604,0.066,0.159,0.24,3.196,,,,,,0.0,-69.8,0.4,-70.0,-70.0,-69.0,-1396.0,,,,,,0.0,,,,,,0.0
0.8009999999999999,0.014635573101180537,0.78,0.8,0.83,16.02,-0.5738000000000001,0.02537636695825466,-0.624,-0.579,-0.528,-11.476,0.1495,0.014627029773675857,0.118,0.151,0.176,2.9899999999999998,,,,,,0.0,-68.9,0.3,-69.0,-69.0,-68.0,-1378.0,,,,,,0.0,,,,,,0.0
0.7914,0.02615415836917716,0.752,0.792,0.862,15.828,-0.5729,0.05075618188949992,-0.664,-0.569,-0.472,-11.458,0.15360000000000001,0.04504486652216876,0.048,0.164,0.22,3.0720000000000005,,,,,,0.0,-67.2,0.4,-68.0,-67.0,-67.0,-1344.0,,,,,,0.0,,,,,,0.0
0.9167,0.11360154048251282,0.782,0.882,1.144,18.334,-0.4894999999999999,0.10414965194372951,-0.594,-0.546,-0.248,-9.789999999999997,0.1502,0.046848265709628995,0.012,0.163,0.214,3.004,,,,,,0.0,-69.9,2.5475478405713994,-75.0,-69.5,-67.0,-1398.0,,,,,,0.0,,,,,,0.0
0.8407,0.08424078584628707,0.68,0.855,0.952,16.814,-0.37039999999999995,0.043642181430354726,-0.446,-0.351,-0.32,-7.4079999999999995,0.16620000000000001,0.023957462303006966,0.112,0.172,0.194,3.3240000000000003,,,,,,0.0,-69.0,2.04939015319192,-75.0,-68.0,-68.0,-1380.0,,,,,,0.0,,,,,,0.0
0.9046,0.022082572313931202,0.862,0.909,0.936,18.092,-0.36650000000000005,0.03753864675238041,-0.45,-0.358,-0.306,-7.330000000000001,0.1689,0.03424310149504568,0.114,0.173,0.224,3.378,,,,,,0.0,-69.0,1.0954451150103321,-71.0,-69.0,-68.0,-1380.0,,,,,,0.0,,,,,,0.0
0.9054,0.015570484899321536,0.876,0.907,0.944,18.108,-0.3708,0.028805555019822127,-0.424,-0.371,-0.328,-7.416,0.2031,0.010816191566350882,0.182,0.202,0.22,4.062,,,,,,0.0,-68.2,1.4696938456699067,-70.0,-69.0,-66.0,-1364.0,,,,,,0.0,,,,,,0.0
0.9076000000000001,0.009002221947941527,0.888,0.911,0.922,18.152,-0.3637,0.012300812981262666,-0.384,-0.368,-0.334,-7.274,0.2051,0.008111103500757461,0.184,0.205,0.216,4.102,,,,,,0.0,-69.1,0.7000000000000001,-70.0,-69.0,-68.0,-1382.0,,,,,,0.0,,,,,,0.0
0.9421000000000002,0.061157092802061816,0.834,0.932,1.054,18.842000000000002,-0.3253,0.060867971873555964,-0.416,-0.34099999999999997,-0.226,-6.505999999999999,0.09049999999999998,0.11462962095374825,-0.1,0.148,0.212,1.8099999999999996,,,,,,0.0,-70.0,2.6457513110645907,-76.0,-70.0,-67.0,-1400.0,,,,,,0.0,,,,,,0.0
0.9108,0.10360772171995677,0.736,0.894,1.092,18.216,-0.3969,0.04293937586877574,-0.474,-0.4,-0.33,-7.938,0.1984,0.09452110875354774,0.028,0.2,0.358,3.968,-99.33333333333333,3.7712361663282534,-102.0,,-94.0,-596.0,-76.0,1.9493588689617927,-78.0,-76.0,-73.0,-1520.0,-97.14285714285714,0.832993127835043,-98.0,,-96.0,-1360.0,,,,,,0.0
0.913875,0.11887276548898826,0.718,0.876,1.164,14.622,-0.253,0.19410950517684597,-0.568,-0.168,-0.014,-4.048,-0.12587500000000001,0.25970412852898583,-0.61,-0.069,0.27,-2.0140000000000002,-94.0,0.0,-94.0,,-94.0,-188.0,-72.5,2.692582403567252,-75.0,-73.5,-68.0,-1160.0,-96.66666666666667,0.9428090415820634,-98.0,,-96.0,-580.0,,,,,,0.0
0.7208,0.19131900062461127,0.526,0.635,1.12,14.416,-0.5773,0.1459839374725863,-0.744,-0.611,-0.05,-11.546000000000001,0.39709999999999995,0.20386905110879386,-0.09,0.483,0.654,7.941999999999999,,,,,,0.0,-72.3,1.676305461424021,-74.0,-73.0,-69.0,-1446.0,,,,,,0.0,,,,,,0.0
0.5125,0.024231178262725906,0.448,0.519,0.546,10.25,-0.7289000000000001,0.022569669913403704,-0.784,-0.723,-0.676,-14.578000000000001,0.4947000000000001,0.024942133028271665,0.45,0.496,0.54,9.894000000000002,,,,,,0.0,-72.8,0.39999999999999997,-73.0,-73.0,-72.0,-1456.0,,,,,,0.0,,,,,,0.0
0.5456000000000001,0.015730225681788532,0.524,0.542,0.582,10.912,-0.7222,0.02847384765008059,-0.82,-0.716,-0.676,-14.443999999999999,0.5020999999999999,0.026641884317742996,0.48,0.494,0.594,10.041999999999998,,,,,,0.0,-71.8,1.16619037896906,-73.0,-72.0,-69.0,-1436.0,,,,,,0.0,,,,,,0.0
0.5834,0.1393959827254717,0.39,0.5609999999999999,0.792,11.668000000000001,-0.6626,0.12233086282700698,-0.968,-0.664,-0.474,-13.251999999999999,0.43789999999999996,0.10977882309443839,0.248,0.469,0.608,8.758,,,,,,0.0,-70.3,2.1,-74.0,-69.5,-68.0,-1406.0,,,,,,0.0,,,,,,0.0
0.20129999999999998,0.2713892223357442,-0.004,0.09,0.854,4.026,-0.7564,0.1407786915694275,-0.952,-0.824,-0.464,-15.128,0.5685,0.2272776935821023,0.15,0.532,0.964,11.370000000000001,,,,,,0.0,-72.1,1.3,-75.0,-72.0,-70.0,-1442.0,,,,,,0.0,,,,,,0.0
0.2494,0.024150362316122706,0.196,0.246,0.3,4.988,-0.6012000000000001,0.03806520721078503,-0.66,-0.599,-0.52,-12.024000000000001,0.8317,0.03870025839707015,0.768,0.829,0.952,16.634,,,,,,0.0,-76.3,1.676305461424021,-79.0,-76.0,-74.0,-1526.0,,,,,,0.0,,,,,,0.0
0.21430000000000002,0.018944920163463348,0.182,0.209,0.262,4.2860000000000005,-0.5988,0.03858704445795246,-0.666,-0.597,-0.522,-11.976,0.8208,0.023633873994755895,0.786,0.821,0.868,16.416,,,,,,0.0,-77.2,1.1661903789690602,-79.0,-77.0,-76.0,-1544.0,,,,,,0.0,,,,,,0.0
0.152625,0.09296160161593603,-0.104,0.198,0.248,2.442,-0.647625,0.03125074999100021,-0.706,-0.64,-0.594,-10.362,0.824125,0.043660444054086305,0.722,0.809,0.924,13.186,,,,,,0.0,-74.0,1.224744871391589,-76.0,-74.0,-72.0,-1184.0,,,,,,0.0,,,,,,0.0
-0.0243,0.09694384972756136,-0.186,0.014,0.126,-0.486,-0.9003,0.13636168816790148,-1.114,-0.904,-0.628,-18.006,0.37360000000000004,0.18985004608901207,-0.062,0.43,0.656,7.472,,,,,,0.0,-70.5,1.2041594578792296,-72.0,-70.5,-69.0,-1410.0,,,,,,0.0,,,,,,0.0
-0.6898,0.2419734696201218,-1.082,-0.697,-0.17,-13.796,-0.48230000000000006,0.315476322407879,-0.866,-0.581,0.082,-9.646,-0.17510000000000003,0.20211232025782097,-0.66,-0.158,0.134,-3.5020000000000007,,,,,,0.0,-69.3,1.846618531261939,-71.0,-69.5,-66.0,-1386.0,,,,,,0.0,,,,,,0.0
-0.8577,0.05431123272399552,-0.954,-0.866,-0.708,-17.154,-0.3426,0.09616465046991021,-0.544,-0.359,-0.088,-6.852,0.20600000000000002,0.09037920114716662,0.024,0.213,0.448,4.12,,,,,,0.0,-67.3,1.4177446878757822,-70.0,-67.0,-66.0,-1346.0,,,,,,0.0,,,,,,0.0
-0.8620999999999999,0.0059824744044584145,-0.872,-0.863,-0.848,-17.241999999999997,-0.3709,0.01175542427988034,-0.398,-0.371,-0.346,-7.418,0.2298,0.011240996397117117,0.214,0.23,0.254,4.596,-100.0,1.0,-101.0,,-99.0,-800.0,-66.9,0.3,-67.0,-67.0,-66.0,-1338.0,,,,,,0.0,,,,,,0.0
-0.8628,0.006046486583132394,-0.872,-0.866,-0.848,-17.256,-0.3688,0.006112282715974454,-0.378,-0.37,-0.354,-7.376,0.23019999999999996,0.008529947244854447,0.216,0.231,0.244,4.603999999999999,,,,,,0.0,-66.7,0.45825756949558394,-67.0,-67.0,-66.0,-1334.0,,,,,,0.0,,,,,,0.0
-0.8230999999999999,0.10557362359983673,-1.026,-0.849,-0.576,-16.462,-0.4385,0.1547163533696422,-0.724,-0.393,-0.178,-8.77,0.088,0.17731666588338504,-0.254,0.082,0.326,1.76,,,,,,0.0,-68.3,2.0024984394500787,-72.0,-68.0,-66.0,-1366.0,,,,,,0.0,,,,,,0.0
-0.0439,0.4150722708155774,-0.696,0.074,0.412,-0.878,-0.8853,0.18534538030390724,-1.21,-0.838,-0.594,-17.706,0.2439,0.19560927892101643,0.014,0.211,0.846,4.878,,,,,,0.0,-68.7,1.9519221295943137,-72.0,-68.5,-66.0,-1374.0,,,,,,0.0,,,,,,0.0
0.2894,0.14021283821390965,0.104,0.23099999999999998,0.542,5.788,-0.5562,0.09666209184576961,-0.872,-0.543,-0.408,-11.124,0.7885000000000001,0.13111044962168347,0.498,0.83,0.952,15.770000000000001,,,,,,0.0,-72.1,1.9209372712298547,-76.0,-72.5,-69.0,-1442.0,-101.0,1.0,-102.0,,-100.0,-808.0,,,,,,0.0
0.29029999999999995,0.031338634303364275,0.224,0.297,0.342,5.805999999999999,-0.6208,0.025134836382996434,-0.674,-0.611,-0.574,-12.416,0.7986,0.03720268807492275,0.75,0.783,0.914,15.972,,,,,,0.0,-76.3,0.45825756949558394,-77.0,-76.0,-76.0,-1526.0,,,,,,0.0,,,,,,0.0
0.3365263157894736,0.012762479634718039,0.304,0.338,0.36,6.393999999999999,-0.6018947368421053,0.016396067361740995,-0.644,-0.6,-0.576,-11.436,0.7824210526315789,0.015513375517423612,0.754,0.78,0.82,14.866,,,,,,0.0,-75.42105263157895,0.6740130776245103,-77.0,-75.0,-75.0,-1433.0,,,,,,0.0,,,,,,0.0
0.26149999999999995,0.0631185392733387,0.158,0.257,0.35,5.2299999999999995,-0.5479,0.055973118548103065,-0.642,-0.543,-0.456,-10.958,0.8068,0.10200862708614405,0.504,0.842,0.924,16.136,,,,,,0.0,-71.15,2.1041625412500813,-75.0,-71.0,-68.0,-1423.0,,,,,,0.0,,,,,,0.0
0.5493999999999999,0.05471416635570719,0.444,0.546,0.658,10.987999999999998,-0.6875000000000001,0.12225526573526395,-0.898,-0.654,-0.45,-13.750000000000002,0.5740999999999999,0.1149947390100956,0.436,0.567,0.926,11.482,,,,,,0.0,-69.35,0.7921489758877429,-70.0,-70.0,-68.0,-1387.0,,,,,,0.0,,,,,,0.0
0.5607,0.015865371095565305,0.518,0.567,0.584,11.214,-0.6253000000000001,0.022963231479911552,-0.672,-0.625,-0.57,-12.506000000000002,0.5822999999999998,0.0177457037054043,0.55,0.583,0.624,11.645999999999997,,,,,,0.0,-70.3,0.714142842854285,-71.0,-70.0,-69.0,-1406.0,,,,,,0.0,,,,,,0.0
0.5782,0.006477653896280664,0.568,0.578,0.59,11.564,-0.6165999999999998,0.007512655988397186,-0.626,-0.618,-0.602,-12.331999999999997,0.5867,0.00895041898460626,0.574,0.586,0.606,11.734,,,,,,0.0,-70.95,0.21794494717703367,-71.0,-71.0,-70.0,-1419.0,,,,,,0.0,,,,,,0.0
0.5652,0.009195651146058078,0.55,0.56,0.582,11.304,-0.6367,0.00963898334888074,-0.658,-0.636,-0.618,-12.734000000000002,0.575,0.005079370039680123,0.568,0.574,0.588,11.499999999999998,,,,,,0.0,-70.0,0.0,-70.0,-70.0,-70.0,-1400.0,,,,,,0.0,,,,,,0.0
0.5620999999999998,0.012719669807035058,0.526,0.562,0.59,11.241999999999997,-0.6472,0.02237319825147937,-0.73,-0.64,-0.632,-12.944,0.5681999999999998,0.009795917517006737,0.542,0.57,0.584,11.363999999999997,,,,,,0.0,-70.1,0.6244997998398398,-71.0,-70.0,-68.0,-1402.0,,,,,,0.0,,,,,,0.0
0.6681999999999999,0.2899971724000081,0.396,0.556,1.436,13.363999999999999,-0.7124,0.12697495816104842,-0.89,-0.676,-0.416,-14.248000000000001,0.2794,0.28718502746487323,-0.346,0.355,0.696,5.588,,,,,,0.0,-70.55,1.395528573695286,-72.0,-70.0,-68.0,-1411.0,,,,,,0.0,,,,,,0.0
0.8266,0.08695309080188007,0.654,0.85,0.928,16.532,-0.35240000000000005,0.06808700316506815,-0.528,-0.34199999999999997,-0.234,-7.048000000000001,0.14150000000000001,0.1155575614142147,-0.096,0.099,0.352,2.83,,,,,,0.0,-69.5,1.8303005217723127,-71.0,-70.0,-66.0,-1390.0,,,,,,0.0,,,,,,0.0
0.8921999999999999,0.0418373039284321,0.788,0.904,0.964,17.843999999999998,-0.3788,0.055528010949429836,-0.488,-0.371,-0.204,-7.5760000000000005,0.2852,0.05035633028726378,0.194,0.29,0.388,5.704000000000001,,,,,,0.0,-70.6,1.624807680927192,-73.0,-70.0,-69.0,-1412.0,,,,,,0.0,,,,,,0.0
0.8951,0.012385071659057943,0.864,0.896,0.91,17.902,-0.3628,0.016809521111560557,-0.398,-0.364,-0.336,-7.256,0.24820000000000003,0.02504316273955827,0.216,0.237,0.286,4.964,,,,,,0.0,-68.35,0.47696960070847283,-69.0,-68.0,-68.0,-1367.0,,,,,,0.0,,,,,,0.0
0.9004,0.011200000000000009,0.866,0.902,0.912,18.008,-0.3534,0.00690217357069496,-0.366,-0.354,-0.34,-7.068,0.23570000000000002,0.010904586191139945,0.216,0.236,0.254,4.714,,,,,,0.0,-68.0,0.0,-68.0,-68.0,-68.0,-1360.0,,,,,,0.0,,,,,,0.0
0.9036,0.008754427451295723,0.878,0.904,0.92,18.072,-0.3499,0.009197282207261005,-0.362,-0.35,-0.33,-6.997999999999999,0.23249999999999998,0.009815803584016946,0.22,0.23,0.252,4.6499999999999995,,,,,,0.0,-68.0,0.0,-68.0,-68.0,-68.0,-1360.0,,,,,,0.0,,,,,,0.0
0.9093,0.007078841713161843,0.888,0.91,0.924,18.186,-0.3425,0.009420721840708371,-0.36,-0.34,-0.328,-6.8500000000000005,0.22530000000000006,0.006581033353509161,0.214,0.225,0.238,4.506000000000001,,,,,,0.0,-67.55,0.4974937185533099,-68.0,-68.0,-67.0,-1351.0,,,,,,0.0,,,,,,0.0
0.9121,0.026095785100280083,0.856,0.916,0.968,18.242,-0.31930000000000003,0.025544275288212823,-0.346,-0.328,-0.228,-6.386000000000001,0.2585,0.05380288096375509,0.21,0.227,0.37,5.17,,,,,,0.0,-66.8,0.9797958971132713,-68.0,-67.0,-65.0,-1336.0,,,,,,0.0,,,,,,0.0
0.9360000000000002,0.06154997969130454,0.816,0.948,1.074,18.720000000000002,-0.35330000000000006,0.07522572698219672,-0.464,-0.333,-0.212,-7.066000000000001,0.19259999999999997,0.10632798314648877,0.048,0.184,0.408,3.8519999999999994,,,,,,0.0,-69.5,1.2449899597988732,-71.0,-70.0,-67.0,-1390.0,,,,,,0.0,,,,,,0.0
0.9128999999999999,0.04326881093813418,0.834,0.912,0.994,18.258,-0.27880000000000005,0.0482095426238416,-0.36,-0.289,-0.168,-5.5760000000000005,0.15219999999999997,0.10372251443153506,-0.068,0.188,0.272,3.0439999999999996,,,,,,0.0,-68.25,0.698212002188447,-69.0,-68.0,-66.0,-1365.0,,,,,,0.0,,,,,,0.0
0.9461999999999999,0.05474267074230121,0.866,0.935,1.072,18.924,-0.1267,0.11455352460749517,-0.41,-0.118,0.046,-2.5340000000000003,-0.1462,0.07823272972356263,-0.288,-0.164,0.056,-2.924,,,,,,0.0,-70.4,2.76405499221705,-75.0,-70.0,-66.0,-1408.0,,,,,,0.0,,,,,,0.0
0.9074,0.038147608050833275,0.856,0.902,1.014,18.148,-0.2825,0.048891205753182225,-0.41,-0.271,-0.224,-5.6499999999999995,-0.2232,0.037594680474769306,-0.264,-0.224,-0.104,-4.464,,,,,,0.0,-69.1,0.9949874371066199,-70.0,-70.0,-68.0,-1382.0,,,,,,0.0,,,,,,0.0
0.8857999999999999,0.012584116973391509,0.856,0.889,0.904,17.715999999999998,-0.2056,0.013305637902783917,-0.228,-0.207,-0.178,-4.112,-0.2912,0.03280487768610028,-0.336,-0.306,-0.234,-5.824000000000001,,,,,,0.0,-68.25,0.4330127018922193,-69.0,-68.0,-68.0,-1365.0,,,,,,0.0,,,,,,0.0
0.9607999999999999,0.1055810589073627,0.872,0.895,1.18,19.215999999999998,-0.1829,0.01952920889334742,-0.218,-0.179,-0.128,-3.658,-0.25870000000000004,0.07188956808884026,-0.33,-0.281,-0.058,-5.174,,,,,,0.0,-69.55,1.2439855304624727,-71.0,-69.0,-68.0,-1391.0,,,,,,0.0,,,,,,0.0
0.8785000000000001,0.07387793987382159,0.752,0.893,1.014,17.57,-0.3191,0.06327866939182587,-0.388,-0.33799999999999997,-0.174,-6.382,0.1681,0.09783961365418406,-0.02,0.207,0.286,3.362,,,,,,0.0,-68.65,1.194780314534852,-70.0,-68.0,-67.0,-1373.0,,,,,,0.0,,,,,,0.0
0.8829,0.04479051238822794,0.786,0.878,0.984,17.658,-0.3650999999999999,0.0495599636803741,-0.456,-0.382,-0.258,-7.301999999999999,0.27990000000000004,0.047935268852902044,0.174,0.305,0.336,5.598000000000001,,,,,,0.0,-68.3,1.0535653752852738,-70.0,-68.0,-67.0,-1366.0,,,,,,0.0,,,,,,0.0
0.9116,0.012970736293672767,0.886,0.911,0.942,18.232,-0.33219999999999994,0.020706520712084873,-0.378,-0.336,-0.296,-6.643999999999999,0.23890000000000003,0.018226080214900842,0.22,0.233,0.286,4.7780000000000005,,,,,,0.0,-68.25,0.698212002188447,-69.0,-68.0,-67.0,-1365.0,,,,,,0.0,,,,,,0.0
0.914,0.008508818954473066,0.902,0.916,0.928,18.28,-0.33249999999999996,0.015935808733791954,-0.37,-0.333,-0.306,-6.6499999999999995,0.22469999999999996,0.019123545696339894,0.204,0.22,0.286,4.493999999999999,,,,,,0.0,-68.1,0.6244997998398398,-69.0,-68.0,-66.0,-1362.0,,,,,,0.0,,,,,,0.0
0.8903000000000001,0.09704900823810618,0.736,0.882,1.058,17.806,-0.36,0.07585776163320403,-0.54,-0.368,-0.25,-7.2,0.20880000000000004,0.04703360500748375,0.134,0.213,0.29,4.176000000000001,,,,,,0.0,-69.95,2.906458325866724,-73.0,-69.0,-66.0,-1399.0,,,,,,0.0,,,,,,0.0
0.8839,0.03438298998051218,0.838,0.878,0.944,17.678,-0.4391999999999999,0.06490731853959152,-0.586,-0.447,-0.314,-8.783999999999999,0.16540000000000002,0.05479087515271133,0.03,0.159,0.27,3.3080000000000003,,,,,,0.0,-71.25,1.3369741957120937,-73.0,-71.0,-70.0,-1425.0,,,,,,0.0,,,,,,0.0
0.8741999999999999,0.011382442620105767,0.844,0.877,0.894,17.483999999999998,-0.438,0.01534926708347993,-0.462,-0.439,-0.414,-8.76,0.1531,0.012624975247500487,0.132,0.152,0.178,3.0620000000000003,,,,,,0.0,-70.65,0.47696960070847283,-71.0,-71.0,-70.0,-1413.0,,,,,,0.0,,,,,,0.0
0.8848999999999998,0.012953377937819937,0.854,0.882,0.908,17.697999999999997,-0.42400000000000004,0.021531372459738834,-0.474,-0.421,-0.392,-8.48,0.14400000000000004,0.011575836902790225,0.124,0.143,0.168,2.880000000000001,,,,,,0.0,-71.25,0.4330127018922193,-72.0,-71.0,-71.0,-1425.0,,,,,,0.0,,,,,,0.0
0.9071999999999999,0.06498122805857087,0.864,0.887,1.138,18.144,-0.4266,0.014547852075134675,-0.458,-0.422,-0.4,-8.532,0.12000000000000002,0.03320240955111541,0.028,0.127,0.16,2.4000000000000004,,,,,,0.0,-71.75,0.4330127018922193,-72.0,-72.0,-71.0,-1435.0,,,,,,0.0,,,,,,0.0
0.9002000000000001,0.1300213828568209,0.7,0.881,1.154,18.004,-0.31700000000000006,0.041801913831785255,-0.448,-0.321,-0.264,-6.340000000000001,0.18560000000000004,0.03210981158462317,0.118,0.189,0.23,3.7120000000000006,,,,,,0.0,-68.6,1.6852299546352716,-71.0,-69.0,-66.0,-1372.0,,,,,,0.0,,,,,,0.0
0.9131,0.011991246807567604,0.87,0.917,0.93,18.262,-0.34059999999999996,0.01785609139761554,-0.366,-0.338,-0.308,-6.811999999999999,0.2325,0.010175952043912154,0.216,0.23299999999999998,0.248,4.65,,,,,,0.0,-68.1,0.8888194417315588,-69.0,-68.0,-67.0,-1362.0,,,,,,0.0,,,,,,0.0
0.8903999999999999,0.03135984693840199,0.796,0.894,0.926,17.807999999999996,-0.3538,0.02351935373261774,-0.4,-0.354,-0.306,-7.0760000000000005,0.2992,0.04356328729561166,0.24,0.292,0.392,5.984000000000001,,,,,,0.0,-69.0,0.8944271909999159,-70.0,-69.0,-68.0,-1380.0,,,,,,0.0,,,,,,0.0
0.8648,0.053165402283816124,0.78,0.854,1.0,17.296,-0.3676,0.03497198879103103,-0.418,-0.365,-0.288,-7.351999999999999,0.33829999999999993,0.0375780521049189,0.27,0.351,0.394,6.765999999999998,,,,,,0.0,-68.7,1.2288205727444506,-70.0,-69.0,-67.0,-1374.0,-103.0,0.0,-103.0,,-103.0,-103.0,,,,,,0.0
0.9105999999999999,0.017788760496448307,0.88,0.912,0.944,18.211999999999996,-0.3287,0.031229953570250466,-0.424,-0.325,-0.28,-6.574,0.28769999999999996,0.04594028733040315,0.232,0.27,0.398,5.754,,,,,,0.0,-68.05,0.8645808232895291,-69.0,-68.0,-67.0,-1361.0,-103.0,0.0,-103.0,,-103.0,-309.0,,,,,,0.0
0.9140000000000003,0.04385886455438627,0.864,0.898,1.022,18.280000000000005,-0.3245,0.02536040220501245,-0.4,-0.327,-0.266,-6.49,0.23979999999999996,0.05388840320514239,0.088,0.255,0.318,4.795999999999999,,,,,,0.0,-67.9,2.233830790368868,-72.0,-68.0,-66.0,-1358.0,,,,,,0.0,,,,,,0.0
0.8884000000000001,0.1547250464533781,0.582,0.899,1.168,17.768,-0.3093,0.14590308427171783,-0.752,-0.289,-0.114,-6.186,0.2258,0.22904750598947807,-0.16,0.179,0.646,4.516,,,,,,0.0,-69.15,2.1277922830953213,-73.0,-68.0,-66.0,-1383.0,,,,,,0.0,,,,,,0.0
0.49300000000000005,0.16371866112328184,0.274,0.46699999999999997,0.886,9.860000000000001,-0.6967000000000001,0.12548828630593375,-0.91,-0.694,-0.452,-13.934000000000001,0.5498,0.16811650722043925,0.078,0.614,0.804,10.995999999999999,,,,,,0.0,-73.1,1.260952021291849,-75.0,-73.0,-71.0,-1462.0,,,,,,0.0,,,,,,0.0
0.4178,0.05296376119574591,0.358,0.397,0.55,8.356,-0.7158,0.07689707406657291,-0.832,-0.735,-0.492,-14.315999999999999,0.609,0.044170125650715555,0.55,0.596,0.716,12.18,,,,,,0.0,-72.9,0.8888194417315588,-74.0,-73.0,-71.0,-1458.0,,,,,,0.0,,,,,,0.0
0.4103,0.0058403767001795216,0.4,0.412,0.422,8.206,-0.7323000000000001,0.007517313349861113,-0.75,-0.731,-0.722,-14.646,0.5930000000000001,0.006016643582596535,0.582,0.591,0.604,11.860000000000001,,,,,,0.0,-73.2,0.39999999999999997,-74.0,-73.0,-73.0,-1464.0,,,,,,0.0,,,,,,0.0
0.4258,0.09918245812642475,0.312,0.403,0.69,8.516,-0.7519000000000001,0.13125162856132488,-1.22,-0.729,-0.458,-15.038000000000002,0.5224,0.12508812893316457,0.206,0.5640000000000001,0.668,10.448,,,,,,0.0,-72.2,1.5362291495737215,-74.0,-73.0,-69.0,-1444.0,,,,,,0.0,,,,,,0.0
0.6219999999999999,0.1977283490043853,0.27,0.699,0.888,9.951999999999998,-0.631375,0.0970095839337537,-0.826,-0.623,-0.41,-10.102,0.386,0.17709601915345247,0.16,0.33499999999999996,0.664,6.176,,,,,,0.0,-70.0625,0.6584783595532961,-71.0,-70.0,-69.0,-1121.0,,,,,,0.0,,,,,,0.0
0.0815,0.15382701323239686,-0.242,0.11,0.4,1.6300000000000001,-0.593,0.19689540370460656,-1.17,-0.548,-0.36,-11.86,0.8421000000000001,0.14784244992558804,0.542,0.872,1.102,16.842000000000002,,,,,,0.0,-71.65,1.3143439428094914,-74.0,-71.0,-70.0,-1433.0,,,,,,0.0,,,,,,0.0
0.0874,0.008627861844049197,0.076,0.088,0.112,1.7480000000000002,-0.5801000000000001,0.009601562372864102,-0.594,-0.58,-0.56,-11.602,0.8668000000000001,0.012073110618229266,0.846,0.864,0.894,17.336000000000002,,,,,,0.0,-70.75,0.4330127018922193,-71.0,-71.0,-70.0,-1415.0,,,,,,0.0,,,,,,0.0
0.08750000000000001,0.008828929719960396,0.07,0.088,0.102,1.7500000000000002,-0.5846,0.008248636250920503,-0.596,-0.585,-0.56,-11.692,0.8615,0.010428326807307113,0.834,0.864,0.88,17.23,,,,,,0.0,-70.4,0.4898979485566356,-71.0,-70.0,-70.0,-1408.0,,,,,,0.0,,,,,,0.0
0.09533333333333334,0.014476033833738976,0.054,0.098,0.114,1.1440000000000001,-0.5776666666666667,0.007652160188832652,-0.59,-0.577,-0.562,-6.932,0.8628333333333335,0.015153840730616423,0.828,0.868,0.88,10.354000000000001,,,,,,0.0,-72.0,6.6332495807108,-94.0,-70.0,-70.0,-864.0,,,,,,0.0,,,,,,0.0
-0.05620000000000001,0.11365896357085085,-0.334,-0.046,0.088,-1.124,-0.557,0.19252480359683527,-0.85,-0.585,-0.02,-11.14,0.8695,0.15356806308604662,0.616,0.876,1.168,17.39,,,,,,0.0,-74.45,8.605085705558079,-94.0,-73.0,-67.0,-1489.0,,,,,,0.0,,,,,,0.0
-0.6171,0.2836994712719782,-0.974,-0.753,-0.154,-12.342,-0.5724,0.3950056202131813,-1.458,-0.664,-0.004,-11.448,0.1762,0.2655265711750897,-0.21,0.055,0.678,3.524,,,,,,0.0,-69.05,1.6874537030686203,-72.0,-69.0,-67.0,-1381.0,,,,,,0.0,,,,,,0.0
-0.8902999999999999,0.03701499696069149,-0.958,-0.898,-0.8,-17.805999999999997,-0.2988,0.04904039151556602,-0.404,-0.289,-0.212,-5.976,0.17690000000000003,0.1087905786362036,0.044,0.16,0.462,3.5380000000000007,,,,,,0.0,-71.35,0.47696960070847283,-72.0,-71.0,-71.0,-1427.0,,,,,,0.0,,,,,,0.0
-0.908,0.004830458915396484,-0.914,-0.91,-0.898,-10.896,-0.27149999999999996,0.025233905761891075,-0.296,-0.28300000000000003,-0.218,-3.2579999999999996,0.16733333333333333,0.011585431464655172,0.14,0.168,0.184,2.008,,,,,,0.0,-71.33333333333333,0.4714045207910317,-72.0,-71.0,-71.0,-856.0,,,,,,0.0,,,,,,0.0
-0.9057000000000001,0.0068198240446510116,-0.922,-0.905,-0.894,-18.114,-0.27070000000000005,0.011336225121265009,-0.304,-0.271,-0.25,-5.414000000000001,0.1727,0.009017205775626947,0.158,0.172,0.2,3.4539999999999997,,,,,,0.0,-71.25,0.4330127018922193,-72.0,-71.0,-71.0,-1425.0,,,,,,0.0,,,,,,0.0
-0.8797,0.08091544969905315,-1.036,-0.886,-0.682,-17.594,-0.2995,0.19317336772961224,-0.722,-0.272,0.092,-5.99,0.08560000000000001,0.1815748881315916,-0.354,0.157,0.326,1.7120000000000002,,,,,,0.0,-72.05,1.2031209415515967,-74.0,-72.0,-69.0,-1441.0,,,,,,0.0,,,,,,0.0
-0.08120000000000001,0.42553326544466524,-0.814,0.10400000000000001,0.36,-1.624,-0.8369,0.19212441281627904,-1.268,-0.782,-0.538,-16.738,0.3852,0.12092708546888906,0.132,0.391,0.59,7.704,,,,,,0.0,-71.25,2.277608394786075,-74.0,-72.0,-68.0,-1425.0,,,,,,0.0,,,,,,0.0
0.2448421052631579,0.08242972327855039,0.07,0.276,0.364,4.652,-0.6154736842105264,0.13040155327661135,-0.792,-0.64,-0.362,-11.694,0.7556842105263158,0.11344975824315078,0.542,0.774,0.966,14.358,,,,,,0.0,-73.15789473684211,3.543164774675123,-79.0,-73.0,-69.0,-1390.0,-99.0,0.0,-99.0,,-99.0,-396.0,,,,,,0.0
0.2209,0.024572138694057544,0.166,0.229,0.252,4.418,-0.6895999999999999,0.046063434522406174,-0.784,-0.692,-0.59,-13.791999999999998,0.7377,0.033010755822913226,0.67,0.732,0.824,14.754,,,,,,0.0,-76.8,1.1661903789690602,-78.0,-77.0,-75.0,-1536.0,,,,,,0.0,,,,,,0.0
0.2325,0.005210566188045204,0.222,0.232,0.24,4.65,-0.7022999999999999,0.006907242575731656,-0.714,-0.704,-0.69,-14.046,0.7247999999999999,0.0059126981996377986,0.71,0.726,0.736,14.495999999999999,,,,,,0.0,-77.8,0.39999999999999997,-78.0,-78.0,-77.0,-1556.0,,,,,,0.0,,,,,,0.0
0.2344,0.007445804187594508,0.22,0.237,0.246,4.688,-0.6960000000000001,0.007563068160475594,-0.708,-0.698,-0.68,-13.920000000000002,0.7215,0.008096295449154516,0.704,0.722,0.734,14.43,,,,,,0.0,-78.0,0.0,-78.0,-78.0,-78.0,-1560.0,,,,,,0.0,,,,,,0.0
0.18089999999999998,0.08333900647355955,0.062,0.179,0.328,3.6179999999999994,-0.6908000000000001,0.10148773324890058,-0.856,-0.702,-0.482,-13.816,0.7437,0.07273589210286761,0.616,0.724,0.968,14.874,,,,,,0.0,-70.8,2.1354156504062622,-74.0,-71.0,-68.0,-1416.0,-103.0,0.0,-103.0,,-103.0,-412.0,,,,,,0.0
0.6054999999999999,0.18872930350107264,0.326,0.612,0.912,12.11,-0.7002999999999999,0.17550415949486778,-1.05,-0.714,-0.36,-14.005999999999998,0.3981,0.17080219553624013,0.07,0.375,0.752,7.962000000000001,,,,,,0.0,-74.2,2.4819347291981715,-78.0,-75.0,-71.0,-1484.0,,,,,,0.0,,,,,,0.0
0.5047,0.056018836117863076,0.448,0.494,0.668,10.094000000000001,-0.5892000000000001,0.053326916280617614,-0.698,-0.587,-0.45,-11.784,0.6709,0.056005267609395455,0.486,0.682,0.744,13.418000000000001,,,,,,0.0,-71.6,2.8705400188814645,-76.0,-70.0,-69.0,-1432.0,,,,,,0.0,,,,,,0.0
0.4713,0.011336225121265003,0.44,0.472,0.496,9.426,-0.6295999999999999,0.018139459749397187,-0.65,-0.638,-0.574,-12.591999999999999,0.6688000000000001,0.016569852141766372,0.646,0.668,0.71,13.376000000000001,,,,,,0.0,-69.0,0.0,-69.0,-69.0,-69.0,-1380.0,,,,,,0.0,,,,,,0.0
0.4506,0.045228751917336836,0.344,0.471,0.51,9.012,-0.6644,0.11288684600076308,-0.936,-0.656,-0.474,-13.288,0.6354,0.055918154475983924,0.422,0.644,0.696,12.708,,,,,,0.0,-71.6,1.7435595774162693,-74.0,-71.0,-69.0,-1432.0,,,,,,0.0,,,,,,0.0
0.8562,0.20191077237235264,0.476,0.877,1.198,17.124,-0.5275,0.15330476183080552,-0.906,-0.49,-0.338,-10.549999999999999,0.1396,0.14785208825038623,0.008,0.068,0.454,2.7920000000000003,,,,,,0.0,-69.2,0.9797958971132714,-70.0,-70.0,-68.0,-1384.0,,,,,,0.0,,,,,,0.0
0.8915,0.08583443364990533,0.706,0.901,1.04,17.83,-0.3441,0.12087758270250114,-0.544,-0.35,-0.006,-6.882000000000001,0.19690000000000002,0.09250399991351725,0.04,0.224,0.34,3.938,,,,,,0.0,-69.6,1.4966629547095764,-71.0,-70.0,-67.0,-1392.0,,,,,,0.0,,,,,,0.0
0.9118999999999999,0.030564521916758316,0.854,0.911,0.96,18.238,-0.3733,0.08534934094648886,-0.59,-0.358,-0.25,-7.466,0.1866,0.04328556341322127,0.12,0.192,0.252,3.7319999999999998,,,,,,0.0,-68.2,1.5999999999999999,-71.0,-67.0,-67.0,-1364.0,,,,,,0.0,,,,,,0.0
0.9024000000000001,0.016390240998838315,0.862,0.898,0.928,18.048000000000002,-0.35459999999999997,0.021772459668122014,-0.392,-0.357,-0.318,-7.092,0.23199999999999998,0.009777525249264252,0.204,0.23,0.248,4.64,,,,,,0.0,-67.8,0.7483314773547882,-69.0,-68.0,-67.0,-1356.0,,,,,,0.0,,,,,,0.0
0.9055,0.006095079983068317,0.892,0.908,0.914,18.11,-0.34540000000000004,0.012001666550941986,-0.362,-0.346,-0.324,-6.908000000000001,0.22230000000000003,0.009905049217444608,0.2,0.224,0.238,4.446000000000001,,,,,,0.0,-67.6,0.4898979485566356,-68.0,-68.0,-67.0,-1352.0,,,,,,0.0,,,,,,0.0
0.9093,0.007022107945624311,0.888,0.91,0.92,18.186,-0.3436,0.006248199740725305,-0.354,-0.344,-0.332,-6.872000000000001,0.21799999999999997,0.00729383301152419,0.204,0.22,0.236,4.359999999999999,,,,,,0.0,-66.6,0.4898979485566356,-67.0,-67.0,-66.0,-1332.0,,,,,,0.0,,,,,,0.0
0.9125000000000002,0.008267405880927834,0.894,0.912,0.928,18.250000000000004,-0.34240000000000004,0.005986651818838288,-0.352,-0.34199999999999997,-0.33,-6.848000000000001,0.21500000000000002,0.008544003745317535,0.198,0.216,0.23,4.300000000000001,,,,,,0.0,-67.0,0.6324555320336759,-68.0,-67.0,-66.0,-1340.0,,,,,,0.0,,,,,,0.0
0.9042999999999999,0.06005422549662929,0.782,0.91,1.02,18.086,-0.24819999999999998,0.08314541478638494,-0.346,-0.28200000000000003,-0.058,-4.9639999999999995,0.07760000000000002,0.12896138957067732,-0.19,0.124,0.22,1.5520000000000003,,,,,,0.0,-67.8,0.39999999999999997,-68.0,-68.0,-67.0,-1356.0,,,,,,0.0,,,,,,0.0
0.9625000000000001,0.04968651728587948,0.896,0.945,1.056,19.250000000000004,0.051500000000000004,0.04785760127712212,-0.034,0.058,0.158,1.03,-0.22970000000000002,0.04397851748297116,-0.298,-0.236,-0.148,-4.594,,,,,,0.0,-74.6,3.6110940170535573,-79.0,-72.0,-71.0,-1492.0,,,,,,0.0,,,,,,0.0
0.9102,0.009775479527879959,0.896,0.91,0.926,18.204,0.08940000000000001,0.020986662431172805,0.054,0.088,0.142,1.7880000000000003,-0.27749999999999997,0.021352985739703935,-0.306,-0.283,-0.228,-5.55,,,,,,0.0,-70.2,0.39999999999999997,-71.0,-70.0,-70.0,-1404.0,,,,,,0.0,,,,,,0.0
0.9041,0.014539257202484602,0.864,0.909,0.926,18.082,0.0857,0.01580221503460828,0.054,0.08399999999999999,0.132,1.714,-0.28480000000000005,0.02163700533807763,-0.314,-0.289,-0.232,-5.696000000000001,,,,,,0.0,-69.4,0.4898979485566356,-70.0,-69.0,-69.0,-1388.0,,,,,,0.0,,,,,,0.0
0.9183,0.023420290348328293,0.888,0.912,0.974,18.366,0.0814,0.03378224385679554,0.012,0.079,0.136,1.6280000000000001,-0.26270000000000004,0.03494724595729969,-0.328,-0.269,-0.17,-5.2540000000000004,,,,,,0.0,-68.4,0.4898979485566356,-69.0,-68.0,-68.0,-1368.0,,,,,,0.0,,,,,,0.0
0.9051,0.13870757008901857,0.728,0.843,1.196,18.102,-0.2826000000000001,0.16548123760716804,-0.552,-0.242,0.024,-5.652000000000001,-0.05139999999999998,0.13300090225257874,-0.292,-0.07,0.124,-1.0279999999999996,,,,,,0.0,-67.8,1.7204650534085253,-71.0,-67.0,-66.0,-1356.0,,,,,,0.0,,,,,,0.0
0.8163,0.016398475538902977,0.78,0.816,0.854,16.326,-0.5485,0.033774990747593096,-0.626,-0.544,-0.5,-10.969999999999999,0.14130000000000004,0.016288339387426826,0.12,0.14100000000000001,0.168,2.8260000000000005,,,,,,0.0,-66.6,0.4898979485566356,-67.0,-67.0,-66.0,-1332.0,,,,,,0.0,,,,,,0.0
0.8627,0.013946684193742983,0.838,0.864,0.882,17.254,-0.4566,0.0231179583873663,-0.498,-0.444,-0.432,-9.132,0.184,0.016407315441594947,0.142,0.183,0.216,3.68,,,,,,0.0,-66.0,0.0,-66.0,-66.0,-66.0,-1320.0,,,,,,0.0,,,,,,0.0
0.8711,0.0071126647608333185,0.86,0.87,0.888,17.422,-0.441,0.01200833044182247,-0.458,-0.441,-0.418,-8.82,0.1875,0.010370631610466167,0.174,0.188,0.212,3.75,,,,,,0.0,-67.0,0.0,-67.0,-67.0,-67.0,-1340.0,,,,,,0.0,,,,,,0.0
0.8692,0.04248952812164429,0.718,0.876,0.926,17.384,-0.417,0.03326559784522142,-0.456,-0.425,-0.338,-8.34,0.16970000000000002,0.032232126830229496,0.12,0.177,0.252,3.394,,,,,,0.0,-67.2,0.7483314773547882,-68.0,-67.0,-66.0,-1344.0,,,,,,0.0,,,,,,0.0
0.8780000000000001,0.16828903707609713,0.508,0.846,1.158,17.560000000000002,-0.41689999999999994,0.11697944263843969,-0.67,-0.417,-0.202,-8.338,0.15510000000000002,0.10080570420368086,-0.018,0.137,0.368,3.1020000000000003,,,,,,0.0,-69.0,3.03315017762062,-74.0,-67.0,-66.0,-1380.0,,,,,,0.0,,,,,,0.0
0.8613,0.022541295437485398,0.838,0.857,0.944,17.226,-0.48719999999999997,0.025142792207708355,-0.528,-0.485,-0.43,-9.744,0.058600000000000006,0.016026228502052504,0.024,0.062,0.086,1.1720000000000002,,,,,,0.0,-67.2,2.4000000000000004,-72.0,-66.0,-66.0,-1344.0,,,,,,0.0,,,,,,0.0
0.8791,0.014906039044628873,0.832,0.879,0.898,17.582,-0.4457000000000001,0.02202067210600077,-0.48,-0.445,-0.41,-8.914000000000001,0.045899999999999996,0.015052906696050434,0.006,0.048,0.072,0.9179999999999999,,,,,,0.0,-66.4,0.4898979485566356,-67.0,-66.0,-66.0,-1328.0,,,,,,0.0,,,,,,0.0
0.8892000000000001,0.013347658970770877,0.856,0.893,0.91,17.784000000000002,-0.4277,0.013119070088996406,-0.452,-0.428,-0.4,-8.554,0.042300000000000004,0.015010329776523898,0.006,0.05,0.056,0.8460000000000001,,,,,,0.0,-67.0,0.0,-67.0,-67.0,-67.0,-1340.0,,,,,,0.0,,,,,,0.0
0.9107,0.1898602380700077,0.646,0.9,1.27,18.214,-0.36260000000000003,0.07761726612036783,-0.498,-0.366,-0.16,-7.252000000000001,0.0759,0.07225365042681235,-0.05,0.059,0.194,1.5179999999999998,,,,,,0.0,-70.0,3.4641016151377544,-75.0,-69.0,-66.0,-1400.0,,,,,,0.0,,,,,,0.0
0.9089,0.016327584022138745,0.876,0.91,0.934,18.178,-0.3453,0.021262878450482657,-0.384,-0.348,-0.308,-6.906,0.1902,0.03584354893143255,0.114,0.197,0.232,3.8040000000000003,,,,,,0.0,-74.2,0.7483314773547882,-75.0,-74.0,-73.0,-1484.0,,,,,,0.0,,,,,,0.0
0.9159,0.010049378090210368,0.88,0.92,0.926,18.318,-0.33859999999999996,0.010584894897919377,-0.356,-0.335,-0.324,-6.771999999999999,0.21120000000000005,0.012006664815842907,0.192,0.21,0.23,4.224000000000001,,,,,,0.0,-74.2,0.39999999999999997,-75.0,-74.0,-74.0,-1484.0,,,,,,0.0,,,,,,0.0
0.9142999999999999,0.007753063910480818,0.896,0.913,0.934,18.285999999999998,-0.33210000000000006,0.005346961754117938,-0.346,-0.331,-0.324,-6.642000000000001,0.21280000000000004,0.01328758819349847,0.192,0.215,0.236,4.256000000000001,,,,,,0.0,-73.2,0.7483314773547882,-74.0,-73.0,-72.0,-1464.0,,,,,,0.0,,,,,,0.0
0.923,0.02451530134426251,0.888,0.916,0.978,18.46,-0.3282,0.016732005259382392,-0.362,-0.329,-0.296,-6.564,0.1861,0.021803440095544555,0.134,0.189,0.22,3.722,,,,,,0.0,-68.8,2.5612496949731396,-72.0,-69.0,-65.0,-1376.0,,,,,,0.0,,,,,,0.0
0.8882,0.1302641930846693,0.696,0.881,1.218,17.764,-0.29030000000000006,0.08012059660287109,-0.394,-0.317,-0.126,-5.806000000000001,0.2347,0.15090695809007618,0.05,0.223,0.54,4.694,,,,,,0.0,-71.2,4.354308211415448,-76.0,-73.0,-66.0,-1424.0,,,,,,0.0,,,,,,0.0
0.8097999999999999,0.26563124816180794,0.338,0.817,1.278,16.195999999999998,-0.48719999999999997,0.2320761943845167,-0.808,-0.554,-0.13,-9.744,0.3397,0.16642628999049397,0.128,0.268,0.752,6.7940000000000005,,,,,,0.0,-72.6,2.0591260281974,-76.0,-73.0,-70.0,-1452.0,,,,,,0.0,,,,,,0.0
0.433,0.043897608135295946,0.344,0.439,0.54,8.66,-0.6662000000000001,0.06269896330881397,-0.884,-0.666,-0.57,-13.324000000000002,0.6446,0.06955889590843142,0.376,0.666,0.704,12.892,,,,,,0.0,-69.6,0.4898979485566356,-70.0,-70.0,-69.0,-1392.0,,,,,,0.0,,,,,,0.0
0.40925,0.012784267675545587,0.386,0.409,0.432,6.548,-0.707625,0.015020298765337513,-0.724,-0.712,-0.68,-11.322,0.6295000000000001,0.0199060292373944,0.6,0.626,0.684,10.072000000000001,,,,,,0.0,-69.5,0.5,-70.0,-69.5,-69.0,-1112.0,,,,,,0.0,,,,,,0.0
0.41600000000000004,0.008803408430829496,0.398,0.418,0.43,6.656000000000001,-0.708625,0.006508408023472413,-0.72,-0.708,-0.694,-11.338,0.6167499999999999,0.00894077737112384,0.594,0.618,0.63,9.867999999999999,,,,,,0.0,-69.0,0.0,-69.0,-69.0,-69.0,-1104.0,,,,,,0.0,,,,,,0.0
0.42089999999999994,0.08014106313245416,0.206,0.414,0.562,8.418,-0.7144,0.051180465023287935,-0.85,-0.698,-0.644,-14.288,0.6295,0.04000437476076836,0.508,0.635,0.678,12.589999999999998,,,,,,0.0,-70.8,2.1354156504062622,-74.0,-71.0,-68.0,-1416.0,,,,,,0.0,,,,,,0.0
0.03130000000000001,0.15854623931206946,-0.324,0.092,0.204,0.6260000000000001,-0.5534,0.12190996677876668,-0.8,-0.501,-0.416,-11.068,0.8376999999999999,0.15061244968461274,0.6,0.864,1.12,16.753999999999998,,,,,,0.0,-71.0,1.5491933384829668,-74.0,-70.0,-70.0,-1420.0,,,,,,0.0,,,,,,0.0
0.05850000000000001,0.009917156850630127,0.038,0.062,0.07,1.1700000000000002,-0.5416000000000001,0.013154466921924268,-0.59,-0.542,-0.52,-10.832000000000003,0.8954000000000001,0.018730723424363514,0.848,0.898,0.952,17.908,,,,,,0.0,-70.0,0.0,-70.0,-70.0,-70.0,-1400.0,,,,,,0.0,,,,,,0.0
0.06550000000000002,0.007179832867135558,0.054,0.064,0.078,1.3100000000000003,-0.5379,0.005566866263886717,-0.546,-0.538,-0.528,-10.758000000000001,0.9002000000000001,0.006569627082262743,0.892,0.899,0.918,18.004,,,,,,0.0,-70.0,0.0,-70.0,-70.0,-70.0,-1400.0,,,,,,0.0,,,,,,0.0
0.06980000000000001,0.006867313885355757,0.054,0.07,0.08,1.3960000000000004,-0.5323,0.005339475629685002,-0.548,-0.532,-0.522,-10.646,0.9004,0.007088018058667747,0.888,0.902,0.912,18.008,,,,,,0.0,-70.2,0.39999999999999997,-71.0,-70.0,-70.0,-1404.0,,,,,,0.0,,,,,,0.0
-0.0301,0.08860581245042562,-0.168,-0.054,0.16,-0.602,-0.6452000000000001,0.1247580057551418,-0.842,-0.641,-0.41,-12.904000000000002,0.7493999999999998,0.17483832531799198,0.492,0.763,1.006,14.987999999999998,,,,,,0.0,-71.4,2.244994432064365,-75.0,-70.0,-69.0,-1428.0,-104.0,0.0,-104.0,,-104.0,-416.0,,,,,,0.0
-0.1417,0.10995321732446031,-0.328,-0.14,0.038,-2.8339999999999996,-0.9359000000000002,0.0752448669345624,-1.102,-0.931,-0.788,-18.718000000000004,0.11019999999999999,0.2678215077248278,-0.186,0.043,0.508,2.2039999999999997,,,,,,0.0,-71.2,1.3266499161421599,-73.0,-71.0,-69.0,-1424.0,,,,,,0.0,,,,,,0.0
-0.27,0.07667594146797285,-0.354,-0.301,-0.126,-5.4,-0.8897999999999998,0.10697457641888564,-1.136,-0.858,-0.744,-17.795999999999996,-0.2153,0.08805061044649265,-0.404,-0.20600000000000002,-0.032,-4.306,,,,,,0.0,-68.4,0.7999999999999999,-70.0,-68.0,-68.0,-1368.0,,,,,,0.0,,,,,,0.0
-0.11950000000000001,0.0128666234887013,-0.142,-0.11699999999999999,-0.1,-2.39,-0.9315999999999999,0.014705101155721417,-0.97,-0.929,-0.904,-18.631999999999998,-0.1618,0.011025425161870177,-0.18,-0.16,-0.142,-3.236,,,,,,0.0,-68.0,0.0,-68.0,-68.0,-68.0,-1360.0,,,,,,0.0,,,,,,0.0
-0.09830000000000003,0.008006872048434395,-0.128,-0.097,-0.09,-1.9660000000000004,-0.9386000000000001,0.009901515035589213,-0.962,-0.937,-0.922,-18.772000000000002,-0.15410000000000001,0.0154463587942272,-0.194,-0.153,-0.128,-3.0820000000000003,,,,,,0.0,-68.0,0.0,-68.0,-68.0,-68.0,-1360.0,,,,,,0.0,,,,,,0.0
-0.09910000000000002,0.006244197306299666,-0.116,-0.097,-0.088,-1.9820000000000004,-0.9452999999999999,0.014577722730248344,-0.988,-0.944,-0.922,-18.906,-0.14300000000000002,0.010009995004993758,-0.162,-0.143,-0.126,-2.8600000000000003,,,,,,0.0,-68.2,0.9797958971132712,-70.0,-68.0,-67.0,-1364.0,,,,,,0.0,,,,,,0.0
-0.31000000000000005,0.1267205794776756,-0.52,-0.302,-0.1,-5.890000000000001,-0.8549473684210526,0.0876172740023399,-1.038,-0.848,-0.666,-16.244,-0.07778947368421052,0.11371227723715603,-0.34,-0.068,0.156,-1.478,,,,,,0.0,-71.47368421052632,2.582704030817957,-75.0,-71.0,-68.0,-1358.0,,,,,,0.0,,,,,,0.0
0.3498,0.1479390415002071,-0.034,0.361,0.584,6.996,-0.8446999999999999,0.23060813081936204,-1.204,-0.839,-0.512,-16.894,0.23679999999999998,0.36243642201081283,-0.248,0.144,0.844,4.736,,,,,,0.0,-72.1,1.4798648586948742,-74.0,-72.0,-70.0,-1442.0,,,,,,0.0,,,,,,0.0
0.0616,0.1434455994445281,-0.146,0.036000000000000004,0.342,1.232,-0.626,0.13982846634358828,-0.944,-0.631,-0.248,-12.52,0.7847000000000001,0.14580435521615945,0.656,0.759,1.36,15.694,,,,,,0.0,-70.15,1.388344337691482,-73.0,-70.0,-69.0,-1403.0,,,,,,0.0,,,,,,0.0
0.09090000000000001,0.010723339032223124,0.066,0.096,0.102,1.8180000000000003,-0.6818,0.015657586020839838,-0.704,-0.684,-0.642,-13.636,0.7780000000000002,0.016780941570722425,0.75,0.778,0.816,15.560000000000004,,,,,,0.0,-72.8,0.39999999999999997,-73.0,-73.0,-72.0,-1456.0,,,,,,0.0,,,,,,0.0
0.10190000000000002,0.005708765190476833,0.092,0.102,0.112,2.0380000000000003,-0.6857,0.0048692915295759,-0.696,-0.686,-0.676,-13.714,0.7714000000000001,0.009738583059151889,0.742,0.774,0.784,15.428,,,,,,0.0,-72.45,0.804673846971554,-73.0,-73.0,-71.0,-1449.0,,,,,,0.0,,,,,,0.0
0.0775,0.03330990843577928,0.016,0.093,0.146,1.55,-0.6847000000000001,0.021561771726831703,-0.74,-0.688,-0.648,-13.694,0.7837999999999999,0.030879766838497975,0.728,0.773,0.854,15.675999999999998,,,,,,0.0,-73.0,3.0983866769659336,-80.0,-72.0,-70.0,-1460.0,,,,,,0.0,,,,,,0.0
0.25070000000000003,0.1164392974901515,0.092,0.22,0.452,5.014,-0.6319,0.055463411362807476,-0.778,-0.619,-0.546,-12.638,0.7666,0.06590933166100228,0.638,0.787,0.846,15.331999999999999,,,,,,0.0,-73.1,3.576310948449533,-80.0,-71.0,-69.0,-1462.0,,,,,,0.0,,,,,,0.0
0.42919999999999997,0.05021314568915196,0.342,0.415,0.526,8.584,-0.7072999999999999,0.027758061891998146,-0.77,-0.713,-0.638,-14.145999999999999,0.6183,0.036062584488635877,0.532,0.632,0.672,12.366,,,,,,0.0,-69.65,0.47696960070847283,-70.0,-70.0,-69.0,-1393.0,,,,,,0.0,,,,,,0.0
0.4944,0.008731551981177237,0.48,0.495,0.51,9.888,-0.6502000000000001,0.018909256992277624,-0.69,-0.653,-0.606,-13.004000000000001,0.6244,0.0111642285895623,0.614,0.624,0.662,12.488,,,,,,0.0,-69.6,0.4898979485566356,-70.0,-70.0,-69.0,-1392.0,,,,,,0.0,,,,,,0.0
0.49350000000000005,0.00802184517427257,0.478,0.496,0.504,9.870000000000001,-0.6483000000000001,0.009192932067626747,-0.664,-0.648,-0.632,-12.966000000000001,0.6261,0.005982474404458414,0.614,0.625,0.634,12.522,,,,,,0.0,-70.15,1.4924811556599298,-73.0,-70.0,-69.0,-1403.0,,,,,,0.0,,,,,,0.0
0.44980000000000003,0.06019601315701895,0.352,0.46699999999999997,0.576,8.996,-0.7144,0.06970968368885344,-0.884,-0.693,-0.616,-14.288,0.5527999999999998,0.12611645412078473,0.142,0.595,0.68,11.055999999999997,,,,,,0.0,-69.55,0.7399324293474371,-71.0,-69.0,-69.0,-1391.0,,,,,,0.0,,,,,,0.0
0.8937000000000002,0.31048946842042807,0.536,0.8180000000000001,1.442,17.874000000000002,-0.44349999999999995,0.15461290373057482,-0.832,-0.428,-0.168,-8.87,0.1534,0.15420778190480533,-0.194,0.147,0.464,3.068,,,,,,0.0,-70.45,3.2322592717787977,-76.0,-70.0,-66.0,-1409.0,-103.0,0.0,-103.0,,-103.0,-412.0,,,,,,0.0
0.8933000000000002,0.05463799044620877,0.802,0.893,1.046,17.866000000000003,-0.36500000000000005,0.06642439310976052,-0.542,-0.367,-0.228,-7.300000000000001,0.19050000000000003,0.13046359645510314,-0.028,0.266,0.334,3.8100000000000005,,,,,,0.0,-66.8,0.7483314773547882,-68.0,-67.0,-66.0,-1336.0,,,,,,0.0,,,,,,0.0
0.9096,0.022694492724006858,0.864,0.912,0.942,18.192,-0.34120000000000006,0.013948476619330146,-0.37,-0.344,-0.316,-6.824000000000001,0.227,0.022221611102708108,0.192,0.223,0.272,4.54,,,,,,0.0,-68.65,1.1521718621802912,-70.0,-69.0,-66.0,-1373.0,,,,,,0.0,,,,,,0.0
0.9112000000000002,0.008588364221433564,0.888,0.912,0.924,18.224000000000004,-0.3386,0.01460273946901744,-0.368,-0.337,-0.314,-6.772,0.2189,0.009705153270299242,0.198,0.216,0.238,4.378,,,,,,0.0,-68.8,0.39999999999999997,-69.0,-69.0,-68.0,-1376.0,,,,,,0.0,,,,,,0.0
0.9141000000000001,0.0068549252366455525,0.896,0.914,0.924,18.282000000000004,-0.33720000000000006,0.006554387843269565,-0.346,-0.338,-0.322,-6.744000000000001,0.21440000000000006,0.007031358332498781,0.2,0.216,0.232,4.288000000000001,,,,,,0.0,-68.8,0.39999999999999997,-69.0,-69.0,-68.0,-1376.0,,,,,,0.0,,,,,,0.0
0.914,0.01013903348450927,0.882,0.914,0.926,18.28,-0.3361,0.006495382975621983,-0.346,-0.337,-0.32,-6.722,0.21070000000000005,0.007246378405796925,0.198,0.215,0.222,4.214000000000001,,,,,,0.0,-68.4,0.4898979485566356,-69.0,-68.0,-68.0,-1368.0,,,,,,0.0,,,,,,0.0
0.9164,0.007002856560004646,0.902,0.918,0.93,18.328,-0.33510000000000006,0.005673623181001703,-0.346,-0.336,-0.328,-6.702000000000001,0.2077,0.009171150418567997,0.19,0.207,0.23,4.154,,,,,,0.0,-69.0,0.0,-69.0,-69.0,-69.0,-1380.0,,,,,,0.0,,,,,,0.0
0.9114000000000001,0.016359706598836073,0.866,0.914,0.928,18.228,-0.31420000000000003,0.02988578257298946,-0.34,-0.322,-0.212,-6.284000000000001,0.1803,0.03909616349464484,0.06,0.192,0.216,3.606,,,,,,0.0,-68.1,0.8888194417315588,-69.0,-68.0,-67.0,-1362.0,,,,,,0.0,,,,,,0.0
0.9671,0.12622436373378954,0.688,0.981,1.142,19.342,-0.11360000000000003,0.10190701644146001,-0.306,-0.08399999999999999,0.04,-2.2720000000000007,-0.09459999999999999,0.08459574457382593,-0.228,-0.11499999999999999,0.072,-1.892,,,,,,0.0,-70.55,1.2439855304624727,-72.0,-70.0,-67.0,-1411.0,,,,,,0.0,,,,,,0.0
0.9501000000000002,0.021498604605880805,0.912,0.946,1.016,19.002000000000002,-0.011300000000000001,0.012381841543163116,-0.032,-0.012,0.018,-0.226,-0.19260000000000002,0.023741103596926574,-0.222,-0.201,-0.122,-3.8520000000000003,,,,,,0.0,-72.55,0.4974937185533099,-73.0,-73.0,-72.0,-1451.0,,,,,,0.0,,,,,,0.0
0.9407368421052633,0.014263837622179752,0.91,0.94,0.972,17.874000000000002,-0.0268421052631579,0.014206237169470158,-0.05,-0.026,-0.008,-0.5100000000000001,-0.19778947368421052,0.009490044353334438,-0.216,-0.2,-0.176,-3.758,,,,,,0.0,-72.57894736842105,0.49372797471825575,-73.0,-73.0,-72.0,-1379.0,,,,,,0.0,,,,,,0.0
0.9612631578947366,0.07624672010565312,0.928,0.942,1.278,18.263999999999996,-0.040315789473684215,0.02037814265483834,-0.114,-0.04,-0.004,-0.7660000000000001,-0.20168421052631583,0.019630943971669743,-0.272,-0.2,-0.18,-3.8320000000000007,,,,,,0.0,-72.89473684210526,0.30689220499185793,-73.0,-73.0,-72.0,-1385.0,,,,,,0.0,,,,,,0.0
0.8894,0.1467107358034851,0.706,0.867,1.258,17.788,-0.27940000000000004,0.11361883646649443,-0.482,-0.255,-0.114,-5.588000000000001,0.09630000000000001,0.18827456015086053,-0.264,0.091,0.318,1.9260000000000002,,,,,,0.0,-69.15,2.372235232855292,-72.0,-69.0,-65.0,-1383.0,,,,,,0.0,,,,,,0.0
0.9050999999999998,0.027331117796387333,0.86,0.91,0.956,18.101999999999997,-0.3744,0.036263480252176565,-0.5,-0.366,-0.33,-7.488,0.2554,0.06786191862893355,0.136,0.252,0.368,5.1080000000000005,,,,,,0.0,-68.95,1.6575584454250776,-71.0,-69.0,-66.0,-1379.0,,,,,,0.0,,,,,,0.0
0.8821,0.02142405190434342,0.83,0.887,0.932,17.642,-0.35810000000000003,0.022391739548324515,-0.408,-0.355,-0.314,-7.162000000000001,0.2947,0.026886985699404835,0.248,0.295,0.352,5.894,,,,,,0.0,-67.7,0.714142842854285,-70.0,-68.0,-67.0,-1354.0,,,,,,0.0,,,,,,0.0
0.8595,0.04513479810523139,0.782,0.881,0.92,17.19,-0.34080000000000005,0.0313521929057602,-0.392,-0.346,-0.288,-6.816000000000001,0.27090000000000003,0.02627907913150687,0.216,0.27,0.322,5.418,,,,,,0.0,-69.7,0.5567764362830021,-70.0,-70.0,-68.0,-1394.0,,,,,,0.0,,,,,,0.0
0.943,0.08483749171209624,0.844,0.938,1.2,18.86,-0.336,0.07679062442772557,-0.506,-0.34099999999999997,-0.226,-6.720000000000001,0.27209999999999995,0.12051800695331798,0.124,0.243,0.662,5.441999999999999,,,,,,0.0,-72.0,3.40587727318528,-78.0,-71.0,-68.0,-1440.0,,,,,,0.0,,,,,,0.0
0.9071000000000001,0.020673412877413335,0.878,0.902,0.96,18.142000000000003,-0.37500000000000006,0.02376972864800943,-0.41,-0.381,-0.314,-7.500000000000001,0.1387,0.01972080120076261,0.086,0.138,0.172,2.774,,,,,,0.0,-68.85,0.4769696007084729,-70.0,-69.0,-68.0,-1377.0,,,,,,0.0,,,,,,0.0
0.9110000000000001,0.010324727599312253,0.892,0.91,0.926,18.220000000000002,-0.3756,0.018028865743579103,-0.414,-0.37,-0.354,-7.512,0.12150000000000001,0.012678722333105968,0.088,0.12,0.144,2.43,,,,,,0.0,-68.65,0.47696960070847283,-69.0,-69.0,-68.0,-1373.0,,,,,,0.0,,,,,,0.0
0.9225,0.04123044991265558,0.88,0.91,1.086,18.45,-0.37350000000000005,0.024082151066713294,-0.434,-0.369,-0.34,-7.470000000000001,0.1026,0.026253380734678724,0.04,0.108,0.128,2.052,,,,,,0.0,-68.15,0.3570714214271425,-69.0,-68.0,-68.0,-1363.0,,,,,,0.0,,,,,,0.0
0.9158000000000002,0.11583591843638143,0.774,0.88,1.122,18.316000000000003,-0.32470000000000004,0.03298044875376925,-0.418,-0.314,-0.284,-6.494000000000001,0.1145,0.04896886766099458,0.014,0.13,0.188,2.29,,,,,,0.0,-70.0,1.7888543819998317,-73.0,-69.0,-68.0,-1400.0,,,,,,0.0,,,,,,0.0
0.9116000000000002,0.018150482087261503,0.852,0.914,0.934,18.232000000000003,-0.33959999999999996,0.012499599993599779,-0.356,-0.34299999999999997,-0.32,-6.791999999999999,0.20620000000000002,0.012898061869908984,0.176,0.206,0.232,4.1240000000000006,,,,,,0.0,-67.7,1.0535653752852738,-69.0,-68.0,-66.0,-1354.0,,,,,,0.0,,,,,,0.0
0.9104000000000003,0.007499333303701075,0.894,0.91,0.92,18.208000000000006,-0.34040000000000004,0.012499599993599784,-0.354,-0.34199999999999997,-0.306,-6.808000000000001,0.21630000000000002,0.008608716512930376,0.204,0.216,0.23,4.3260000000000005,,,,,,0.0,-66.8,0.39999999999999997,-67.0,-67.0,-66.0,-1336.0,,,,,,0.0,,,,,,0.0
0.9114999999999999,0.0062569960843842694,0.892,0.911,0.92,18.229999999999997,-0.3368,0.007386474125047742,-0.346,-0.336,-0.324,-6.736,0.21590000000000004,0.009153687781435419,0.198,0.216,0.23,4.3180000000000005,,,,,,0.0,-66.4,0.4898979485566356,-67.0,-66.0,-66.0,-1328.0,,,,,,0.0,,,,,,0.0
0.9085999999999999,0.007952358140828425,0.888,0.91,0.924,18.171999999999997,-0.3376,0.009068627239003695,-0.356,-0.336,-0.324,-6.752,0.21960000000000002,0.012435433245367854,0.2,0.221,0.248,4.392,,,,,,0.0,-67.45,1.2439855304624727,-70.0,-67.0,-66.0,-1349.0,,,,,,0.0,,,,,,0.0
0.9458,0.14859057843618487,0.718,0.909,1.276,18.916,-0.3478,0.09435655780071675,-0.558,-0.36,-0.128,-6.9559999999999995,0.20599999999999996,0.18418143228892536,0.024,0.16199999999999998,0.642,4.119999999999999,,,,,,0.0,-68.65,0.8529361054615989,-70.0,-68.0,-68.0,-1373.0,-101.0,0.0,-101.0,,-101.0,-404.0,,,,,,0.0
0.8572,0.20118290185798596,0.624,0.821,1.582,17.144,-0.4152,0.22554148177220082,-1.15,-0.33999999999999997,-0.208,-8.304,0.1947,0.1802523508861951,-0.122,0.14500000000000002,0.8,3.894,,,,,,0.0,-70.75,3.533765696816924,-76.0,-70.0,-66.0,-1415.0,,,,,,0.0,,,,,,0.0
0.5200999999999999,0.0932512198311636,0.414,0.493,0.738,10.401999999999997,-0.6140000000000001,0.08333786654336671,-0.804,-0.607,-0.456,-12.280000000000001,0.6331,0.09238067979832146,0.444,0.646,0.806,12.662,,,,,,0.0,-68.25,2.2107690969434146,-74.0,-67.0,-66.0,-1365.0,,,,,,0.0,,,,,,0.0
0.4185,0.015644487847162016,0.4,0.414,0.456,8.37,-0.6939,0.027191726682945297,-0.722,-0.702,-0.606,-13.877999999999998,0.6393000000000001,0.021431518844916248,0.614,0.637,0.696,12.786000000000001,,,,,,0.0,-68.4,0.4898979485566356,-69.0,-68.0,-68.0,-1368.0,,,,,,0.0,,,,,,0.0
0.429625,0.005840323193111838,0.414,0.431,0.44,6.874,-0.6957499999999999,0.0056069153730014445,-0.706,-0.697,-0.686,-11.131999999999998,0.621375,0.00999296627633658,0.6,0.624,0.638,9.942,,,,,,0.0,-68.5,0.5,-69.0,-68.5,-68.0,-1096.0,,,,,,0.0,,,,,,0.0
0.4175,0.011222744762311934,0.4,0.416,0.45,8.35,-0.7085000000000001,0.025336732228130786,-0.81,-0.702,-0.69,-14.170000000000002,0.6123000000000001,0.008792610533851716,0.59,0.609,0.624,12.246000000000002,,,,,,0.0,-68.4,0.4898979485566356,-69.0,-68.0,-68.0,-1368.0,,,,,,0.0,,,,,,0.0
0.20990000000000003,0.24161165120912526,-0.312,0.30100000000000005,0.454,4.198,-0.7438,0.12069283325864881,-1.076,-0.784,-0.52,-14.876000000000001,0.6007,0.054849886052753115,0.504,0.608,0.686,12.014000000000001,,,,,,0.0,-71.0,1.2649110640673518,-72.0,-72.0,-69.0,-1420.0,,,,,,0.0,,,,,,0.0
0.0177,0.09917313144193846,-0.308,0.048,0.152,0.354,-0.6826000000000001,0.337017566307752,-1.678,-0.752,0.044,-13.652000000000001,0.7306,0.1301231724175214,0.448,0.716,0.982,14.612,,,,,,0.0,-68.45,1.8567444627627139,-72.0,-68.0,-67.0,-1369.0,,,,,,0.0,,,,,,0.0
0.043500000000000004,0.008267405880927826,0.022,0.046,0.056,0.8700000000000001,-0.763,0.008660254037844395,-0.776,-0.762,-0.746,-15.26,0.6863000000000001,0.01274794101021805,0.652,0.688,0.712,13.726000000000003,,,,,,0.0,-68.2,0.39999999999999997,-69.0,-68.0,-68.0,-1364.0,,,,,,0.0,,,,,,0.0
0.052900000000000016,0.01733753154286965,0.038,0.05,0.126,1.0580000000000003,-0.7686,0.00977957054271813,-0.784,-0.768,-0.754,-15.372,0.68,0.010917875251164921,0.648,0.684,0.696,13.600000000000001,,,,,,0.0,-67.65,0.47696960070847283,-68.0,-68.0,-67.0,-1353.0,,,,,,0.0,,,,,,0.0
0.05800000000000001,0.010583005244258361,0.038,0.057999999999999996,0.088,1.1600000000000001,-0.7742,0.014777009169652697,-0.82,-0.77,-0.76,-15.484,0.6745,0.013219304066402279,0.638,0.678,0.688,13.49,,,,,,0.0,-68.55,1.774119499921017,-72.0,-68.0,-67.0,-1371.0,,,,,,0.0,,,,,,0.0
-0.09609999999999999,0.0683943711134184,-0.202,-0.11499999999999999,0.064,-1.922,-0.6491999999999999,0.1349924442330014,-0.918,-0.656,-0.4,-12.983999999999998,0.7634,0.12208210352054064,0.616,0.744,1.036,15.267999999999999,,,,,,0.0,-68.3,2.3895606290697042,-71.0,-70.0,-65.0,-1366.0,,,,,,0.0,,,,,,0.0
-0.4423,0.24170252377664572,-0.986,-0.391,-0.11,-8.846,-0.7959999999999999,0.19178738227526854,-1.178,-0.835,-0.434,-15.919999999999998,0.11039999999999998,0.29475657753475154,-0.43,0.026,0.64,2.2079999999999997,,,,,,0.0,-68.6,2.0591260281974,-72.0,-67.0,-67.0,-1372.0,,,,,,0.0,,,,,,0.0
-0.8058000000000002,0.04638059939241838,-0.894,-0.802,-0.72,-16.116000000000003,-0.3416,0.09976893304030067,-0.584,-0.33899999999999997,-0.21,-6.832,-0.30010000000000003,0.1270550668017612,-0.574,-0.293,-0.09,-6.002000000000001,,,,,,0.0,-72.8,1.2489995996796797,-74.0,-73.0,-70.0,-1456.0,-100.0,0.0,-100.0,,-100.0,-400.0,,,,,,0.0
-0.8281176470588236,0.025367608695623156,-0.866,-0.836,-0.766,-14.078000000000001,-0.3090588235294118,0.0388609445379371,-0.352,-0.324,-0.218,-5.2540000000000004,-0.25376470588235295,0.024057601004463542,-0.304,-0.25,-0.22,-4.314,,,,,,0.0,-75.6470588235294,0.5882352941176471,-76.0,-76.0,-74.0,-1286.0,,,,,,0.0,,,,,,0.0
-0.8158947368421053,0.006664080754250253,-0.832,-0.814,-0.802,-15.502,-0.36589473684210533,0.010711011239507379,-0.386,-0.37,-0.344,-6.952000000000001,-0.24315789473684207,0.014715774414569513,-0.266,-0.242,-0.208,-4.619999999999999,,,,,,0.0,-85.3157894736842,13.278604205257764,-105.0,-75.0,-74.0,-1621.0,,,,,,0.0,,,,,,0.0
-0.8129,0.005982474404458368,-0.824,-0.814,-0.802,-16.258,-0.37540000000000007,0.007241546796092675,-0.392,-0.377,-0.362,-7.508000000000001,-0.2399,0.008233468284993875,-0.258,-0.24,-0.22,-4.798,,,,,,0.0,-74.65,0.47696960070847283,-75.0,-75.0,-74.0,-1493.0,,,,,,0.0,,,,,,0.0
-0.7643157894736842,0.0799638422443669,-0.88,-0.792,-0.546,-14.522,-0.4189473684210527,0.09335696838322446,-0.554,-0.402,-0.136,-7.960000000000001,-0.30368421052631583,0.201935125755403,-0.676,-0.242,0.11,-5.770000000000001,,,,,,0.0,-70.21052631578948,3.3651299711885856,-74.0,-69.0,-66.0,-1334.0,,,,,,0.0,,,,,,0.0
0.2091,0.4875052717663677,-0.77,0.439,0.738,4.182,-0.7830999999999999,0.2973627246310472,-1.7,-0.733,-0.458,-15.661999999999999,0.21790000000000004,0.3200859103428328,-0.52,0.319,0.624,4.3580000000000005,,,,,,0.0,-68.8,2.3151673805580453,-74.0,-69.0,-66.0,-1376.0,-102.0,0.0,-102.0,,-102.0,-408.0,,,,,,0.0
-0.049800000000000004,0.22048482941009798,-0.624,0.034,0.158,-0.9960000000000001,-0.6960000000000001,0.23152105735764078,-1.04,-0.704,-0.26,-13.920000000000002,0.6660999999999999,0.17334298370571566,0.438,0.641,0.982,13.321999999999997,,,,,,0.0,-71.2,2.2715633383201097,-74.0,-72.0,-67.0,-1424.0,,,,,,0.0,,,,,,0.0
0.0152,0.027176460402340844,-0.04,0.016,0.078,0.304,-0.6962999999999999,0.02434152830041695,-0.734,-0.704,-0.624,-13.925999999999998,0.7952999999999999,0.08591687843491523,0.744,0.764,1.052,15.905999999999999,,,,,,0.0,-73.2,0.6,-74.0,-73.0,-72.0,-1464.0,,,,,,0.0,,,,,,0.0
0.009200000000000002,0.005564171097297422,-0.004,0.008,0.018,0.18400000000000002,-0.7087999999999999,0.006144916598294891,-0.72,-0.712,-0.696,-14.175999999999998,0.7510999999999999,0.006015812497078019,0.742,0.752,0.766,15.021999999999998,,,,,,0.0,-73.3,0.45825756949558394,-74.0,-73.0,-73.0,-1466.0,,,,,,0.0,,,,,,0.0
0.011200000000000002,0.007054076835419358,-0.002,0.011,0.028,0.22400000000000003,-0.7069,0.006147357155721479,-0.716,-0.707,-0.692,-14.138,0.7534,0.006483826030978937,0.736,0.753,0.764,15.068,,,,,,0.0,-73.4,0.4898979485566356,-74.0,-73.0,-73.0,-1468.0,,,,,,0.0,,,,,,0.0
-0.0252,0.1390271915849558,-0.354,0.002,0.248,-0.504,-0.6950000000000001,0.14346219014081724,-1.182,-0.701,-0.398,-13.9,0.7434999999999999,0.09520898066884238,0.568,0.74,0.952,14.87,,,,,,0.0,-71.4,1.624807680927192,-73.0,-72.0,-69.0,-1428.0,-105.0,0.0,-105.0,,-105.0,-420.0,,,,,,0.0
0.1883,0.27592772604433935,-0.178,0.134,0.598,3.766,-0.7732,0.16753554846658664,-1.086,-0.778,-0.392,-15.464,0.5923,0.08861438935071439,0.368,0.594,0.758,11.846,,,,,,0.0,-72.2,1.7204650534085253,-75.0,-72.0,-70.0,-1444.0,,,,,,0.0,,,,,,0.0
0.46740000000000004,0.05048207602704151,0.376,0.46699999999999997,0.584,9.348,-0.6835000000000001,0.10929203996632143,-0.904,-0.676,-0.414,-13.670000000000002,0.6049,0.057562053472752346,0.472,0.618,0.702,12.097999999999999,,,,,,0.0,-71.0,1.3416407864998738,-73.0,-70.0,-70.0,-1420.0,,,,,,0.0,,,,,,0.0
0.43079999999999996,0.015663971399361022,0.39,0.432,0.462,8.616,-0.726,0.023125743231299633,-0.802,-0.728,-0.698,-14.52,0.5871000000000001,0.01571591549990009,0.54,0.59,0.608,11.742,,,,,,0.0,-69.6,0.9165151389911679,-71.0,-69.0,-69.0,-1392.0,,,,,,0.0,,,,,,0.0
0.4303,0.008252878285786124,0.414,0.429,0.448,8.606,-0.7091999999999999,0.006013318551349169,-0.722,-0.707,-0.698,-14.184,0.5995999999999999,0.008777243302996684,0.572,0.6,0.614,11.991999999999999,,,,,,0.0,-69.0,0.0,-69.0,-69.0,-69.0,-1380.0,,,,,,0.0,,,,,,0.0
0.4346000000000001,0.005257375771237971,0.422,0.434,0.444,8.692000000000002,-0.7118,0.006384355879804953,-0.73,-0.712,-0.7,-14.236,0.5971,0.006212084996198946,0.584,0.598,0.606,11.941999999999998,,,,,,0.0,-69.7,0.45825756949558394,-70.0,-70.0,-69.0,-1394.0,,,,,,0.0,,,,,,0.0
0.42270000000000013,0.02101689796330562,0.384,0.427,0.464,8.454000000000002,-0.7277,0.02690185867184646,-0.784,-0.719,-0.674,-14.554,0.5785,0.04050617236915876,0.48,0.582,0.658,11.57,,,,,,0.0,-70.4,0.4898979485566356,-71.0,-70.0,-70.0,-1408.0,,,,,,0.0,,,,,,0.0
0.756,0.38337188211969847,0.368,0.613,1.742,15.120000000000001,-0.5505,0.23781915398049838,-0.912,-0.5,-0.152,-11.01,0.23360000000000003,0.1781410676963625,0.014,0.16599999999999998,0.6,4.672000000000001,,,,,,0.0,-68.7,1.1874342087037917,-70.0,-69.0,-67.0,-1374.0,,,,,,0.0,,,,,,0.0
0.8789999999999999,0.05167010741231338,0.732,0.881,0.952,17.58,-0.3754,0.04566880773569638,-0.45,-0.366,-0.296,-7.508,0.2545,0.048007811864320585,0.176,0.258,0.316,5.09,,,,,,0.0,-66.9,0.7000000000000001,-68.0,-67.0,-66.0,-1338.0,,,,,,0.0,,,,,,0.0
0.8832000000000001,0.03597999444135588,0.798,0.89,0.966,17.664,-0.3632,0.02716173779418394,-0.43,-0.366,-0.284,-7.264,0.2983,0.022805920283996438,0.27,0.288,0.352,5.966,,,,,,0.0,-66.0,0.0,-66.0,-66.0,-66.0,-1320.0,,,,,,0.0,,,,,,0.0
0.9072000000000001,0.016963490206912034,0.864,0.91,0.93,18.144000000000002,-0.34349999999999997,0.025470571253900055,-0.382,-0.354,-0.288,-6.869999999999999,0.2544,0.01859677391377332,0.22,0.259,0.286,5.088,,,,,,0.0,-64.4,0.6633249580710798,-66.0,-64.0,-64.0,-1288.0,,,,,,0.0,,,,,,0.0
0.9131000000000002,0.006464518543557601,0.9,0.912,0.926,18.262000000000004,-0.32300000000000006,0.01139298029490089,-0.344,-0.32,-0.306,-6.460000000000001,0.23960000000000004,0.010326664514740467,0.224,0.24,0.254,4.792000000000001,,,,,,0.0,-64.0,0.0,-64.0,-64.0,-64.0,-1280.0,,,,,,0.0,,,,,,0.0
0.9194000000000001,0.006102458520956948,0.91,0.92,0.934,18.388,-0.31820000000000004,0.006720119046564583,-0.336,-0.319,-0.306,-6.364000000000001,0.22300000000000003,0.009327379053088817,0.206,0.222,0.24,4.460000000000001,,,,,,0.0,-64.0,0.0,-64.0,-64.0,-64.0,-1280.0,,,,,,0.0,,,,,,0.0
0.9182,0.00804735981549229,0.888,0.92,0.928,18.364,-0.32139999999999996,0.009425497334358544,-0.346,-0.32,-0.308,-6.427999999999999,0.19450000000000003,0.020927254956157056,0.152,0.196,0.232,3.8900000000000006,,,,,,0.0,-66.2,2.0396078054371136,-72.0,-66.0,-64.0,-1324.0,,,,,,0.0,,,,,,0.0
0.9433,0.01850702569296317,0.912,0.942,0.972,18.866,-0.28870000000000007,0.03467722595594982,-0.378,-0.284,-0.248,-5.774000000000001,0.12940000000000002,0.017402298698735177,0.104,0.126,0.166,2.588,,,,,,0.0,-66.9,2.8089143810376274,-72.0,-66.5,-63.0,-1338.0,,,,,,0.0,,,,,,0.0
0.9434000000000001,0.023656711521257538,0.918,0.94,1.008,18.868000000000002,-0.2801,0.04447684790989578,-0.37,-0.276,-0.196,-5.602,0.15590000000000004,0.01830273203650209,0.126,0.152,0.198,3.1180000000000008,,,,,,0.0,-65.3,3.4655446902326914,-74.0,-63.5,-63.0,-1306.0,,,,,,0.0,,,,,,0.0
0.9181000000000001,0.09280188575670217,0.754,0.912,1.112,18.362000000000002,-0.1813,0.1154872720259683,-0.318,-0.22299999999999998,0.038,-3.626,-0.010000000000000004,0.14036096323408442,-0.28,-0.014000000000000002,0.21,-0.20000000000000007,,,,,,0.0,-70.1,1.7578395831246945,-74.0,-70.0,-68.0,-1402.0,,,,,,0.0,,,,,,0.0
0.9446,0.0402795233338231,0.896,0.927,1.062,18.892,0.023200000000000005,0.04561315599692703,-0.104,0.019,0.094,0.4640000000000001,-0.2513,0.06029684900556579,-0.336,-0.266,-0.136,-5.026000000000001,,,,,,0.0,-71.7,1.6155494421403511,-74.0,-72.0,-69.0,-1434.0,,,,,,0.0,,,,,,0.0
0.9092,0.014496896219536093,0.88,0.91,0.952,18.184,0.03760000000000001,0.013922643427165692,0.016,0.038,0.066,0.7520000000000002,-0.2913,0.008701149349367585,-0.306,-0.29,-0.276,-5.826,,,,,,0.0,-72.4,0.6633249580710798,-74.0,-72.0,-72.0,-1448.0,,,,,,0.0,,,,,,0.0
0.9826,0.12225563381701475,0.814,0.926,1.286,19.652,-0.029099999999999997,0.07746347526415272,-0.208,-0.037,0.07,-0.582,-0.22830000000000003,0.07057272844378344,-0.308,-0.247,-0.042,-4.566000000000001,,,,,,0.0,-71.7,1.7349351572897473,-73.0,-72.0,-67.0,-1434.0,,,,,,0.0,,,,,,0.0
0.8613999999999999,0.0771468729113501,0.71,0.89,0.96,17.227999999999998,-0.32510000000000006,0.06082261092718727,-0.442,-0.333,-0.212,-6.502000000000001,0.17060000000000003,0.10138066876875493,-0.036,0.206,0.294,3.4120000000000004,,,,,,0.0,-66.4,1.2,-68.0,-67.0,-65.0,-1328.0,,,,,,0.0,,,,,,0.0
0.9024000000000001,0.014361058456813005,0.862,0.902,0.934,18.048000000000002,-0.3545,0.014196830632222102,-0.378,-0.358,-0.322,-7.09,0.24050000000000002,0.018599731180853132,0.21,0.236,0.28,4.8100000000000005,,,,,,0.0,-67.0,0.0,-67.0,-67.0,-67.0,-1340.0,,,,,,0.0,,,,,,0.0
0.9097000000000002,0.006042350536008323,0.894,0.91,0.924,18.194000000000003,-0.3560999999999999,0.007469270379361032,-0.372,-0.356,-0.346,-7.121999999999998,0.22319999999999998,0.009239047569960879,0.206,0.222,0.242,4.4639999999999995,,,,,,0.0,-65.7,1.004987562112089,-67.0,-65.5,-64.0,-1314.0,,,,,,0.0,,,,,,0.0
0.9184000000000001,0.024377038376308134,0.864,0.92,0.962,18.368000000000002,-0.34049999999999997,0.03831383562109124,-0.4,-0.346,-0.248,-6.81,0.2056,0.03365471735136101,0.142,0.206,0.272,4.112,,,,,,0.0,-66.2,1.5999999999999999,-68.0,-66.5,-64.0,-1324.0,,,,,,0.0,,,,,,0.0
0.9127000000000001,0.11314110658818927,0.726,0.905,1.1,18.254,-0.22460000000000005,0.0312672352471401,-0.314,-0.226,-0.168,-4.492000000000001,0.2193,0.09250356749877273,0.08,0.22999999999999998,0.358,4.386,,,,,,0.0,-67.8,0.8717797887081347,-69.0,-68.0,-66.0,-1356.0,,,,,,0.0,,,,,,0.0
0.8940000000000001,0.09046104133824681,0.782,0.873,1.158,17.880000000000003,-0.48919999999999997,0.0869905742020364,-0.634,-0.5,-0.238,-9.783999999999999,0.14520000000000002,0.05180115828820819,0.088,0.132,0.29,2.9040000000000004,,,,,,0.0,-66.5,0.5,-67.0,-66.5,-66.0,-1330.0,,,,,,0.0,,,,,,0.0
0.8548,0.014715977711317737,0.832,0.855,0.888,17.096,-0.4861,0.019884416008522858,-0.546,-0.483,-0.456,-9.722,0.12410000000000002,0.013468110483657312,0.102,0.12,0.16,2.482,,,,,,0.0,-66.9,0.3,-67.0,-67.0,-66.0,-1338.0,,,,,,0.0,,,,,,0.0
0.8713,0.024781242906682474,0.824,0.869,0.946,17.426,-0.4492,0.0362734062365254,-0.508,-0.455,-0.34,-8.984,0.1307,0.021083405796976918,0.098,0.125,0.174,2.6140000000000003,,,,,,0.0,-66.2,0.39999999999999997,-67.0,-66.0,-66.0,-1324.0,,,,,,0.0,,,,,,0.0
0.8958,0.03153981610599529,0.856,0.882,0.988,17.916,-0.4361,0.03184634986933354,-0.506,-0.437,-0.338,-8.722,0.12179999999999998,0.03085384903055047,0.056,0.13,0.166,2.4359999999999995,,,,,,0.0,-66.4,0.4898979485566356,-67.0,-66.0,-66.0,-1328.0,,,,,,0.0,,,,,,0.0
0.9198999999999999,0.16348024345467557,0.696,0.884,1.212,18.398,-0.2981,0.08424838277379573,-0.52,-0.313,-0.12,-5.962,0.13790000000000002,0.05911844043951091,-0.05,0.144,0.228,2.7580000000000005,,,,,,0.0,-70.6,3.136877428271624,-75.0,-70.5,-66.0,-1412.0,,,,,,0.0,,,,,,0.0
0.9109999999999999,0.014959946523968608,0.878,0.91,0.936,18.22,-0.3359,0.01703496404457608,-0.364,-0.334,-0.306,-6.718,0.2338,0.027632589455206694,0.176,0.23199999999999998,0.284,4.676,,,,,,0.0,-73.6,0.4898979485566356,-74.0,-74.0,-73.0,-1472.0,,,,,,0.0,,,,,,0.0
0.9073000000000002,0.008468175718535849,0.892,0.906,0.924,18.146000000000004,-0.34019999999999995,0.009526804291051629,-0.36,-0.338,-0.324,-6.803999999999999,0.2525,0.011914277149705731,0.224,0.25,0.27,5.05,,,,,,0.0,-71.6,1.3564659966250536,-74.0,-71.5,-70.0,-1432.0,,,,,,0.0,,,,,,0.0
0.90825,0.01408678458698082,0.88,0.911,0.93,14.532,-0.322,0.009354143466934863,-0.336,-0.323,-0.308,-5.152,0.239875,0.009551668702378658,0.224,0.24,0.254,3.838,,,,,,0.0,-69.125,1.2686114456365274,-70.0,-70.0,-67.0,-1106.0,,,,,,0.0,,,,,,0.0
0.9174000000000001,0.007102112361825888,0.902,0.919,0.926,18.348000000000003,-0.3208000000000001,0.008109253973085324,-0.334,-0.32,-0.296,-6.416000000000001,0.22650000000000006,0.007819846545808938,0.208,0.226,0.242,4.530000000000001,,,,,,0.0,-68.5,0.5,-69.0,-68.5,-68.0,-1370.0,,,,,,0.0,,,,,,0.0
0.9275,0.054596245292144414,0.83,0.92,1.052,18.55,-0.28889999999999993,0.06247071313823783,-0.404,-0.3,-0.162,-5.777999999999999,0.1421,0.08817817190212099,0.022,0.132,0.312,2.842,,,,,,0.0,-69.0,3.1937438845342623,-78.0,-68.0,-67.0,-1380.0,,,,,,0.0,,,,,,0.0
0.7712000000000001,0.22114918041901035,0.394,0.8049999999999999,1.152,15.424000000000001,-0.5017,0.2798715955576771,-0.882,-0.567,-0.05,-10.034,0.2611,0.1966473747600003,-0.066,0.223,0.638,5.2219999999999995,,,,,,0.0,-72.9,3.080584360149872,-78.0,-72.0,-69.0,-1458.0,,,,,,0.0,,,,,,0.0
0.45970000000000005,0.025324099194245785,0.414,0.455,0.524,9.194,-0.6218,0.06671401651826997,-0.754,-0.633,-0.51,-12.436,0.6638,0.04052604101068842,0.606,0.664,0.76,13.276,,,,,,0.0,-68.7,0.45825756949558394,-69.0,-69.0,-68.0,-1374.0,,,,,,0.0,,,,,,0.0
0.4368,0.011124747188138714,0.414,0.439,0.45,8.736,-0.6869000000000001,0.008954886933959547,-0.712,-0.687,-0.67,-13.738000000000001,0.6213,0.0075967098141234875,0.604,0.624,0.638,12.426,,,,,,0.0,-68.7,0.45825756949558394,-69.0,-69.0,-68.0,-1374.0,,,,,,0.0,,,,,,0.0
0.4316,0.007605261336732625,0.408,0.432,0.44,8.632,-0.6923000000000001,0.00648922183316303,-0.708,-0.692,-0.676,-13.846000000000002,0.6213,0.009386692708297218,0.604,0.623,0.64,12.426,,,,,,0.0,-69.0,0.0,-69.0,-69.0,-69.0,-1380.0,,,,,,0.0,,,,,,0.0
0.4359,0.015613775968675872,0.416,0.431,0.472,8.718,-0.7079,0.016534509366775908,-0.754,-0.704,-0.686,-14.158,0.6091,0.014275503493747614,0.572,0.612,0.624,12.181999999999999,,,,,,0.0,-68.9,0.7,-70.0,-69.0,-68.0,-1378.0,,,,,,0.0,,,,,,0.0
0.2886,0.2138925898669704,-0.09,0.348,0.562,5.772,-0.6016999999999999,0.14894733968755536,-0.798,-0.651,-0.302,-12.033999999999999,0.7245,0.1134246445883786,0.574,0.692,0.928,14.49,,,,,,0.0,-70.9,1.5132745950421556,-72.0,-72.0,-68.0,-1418.0,-98.0,3.0,-101.0,,-95.0,-784.0,,,,,,0.0
0.16350000000000003,0.02533673222813076,0.13,0.158,0.216,3.2700000000000005,-0.5119999999999999,0.2027856010667424,-1.32,-0.494,-0.226,-10.239999999999998,0.9247,0.05692196412633705,0.866,0.908,1.094,18.494,,,,,,0.0,-69.4,0.9165151389911679,-71.0,-69.5,-68.0,-1388.0,,,,,,0.0,,,,,,0.0
0.15189999999999998,0.0043116122274620226,0.144,0.152,0.16,3.0379999999999994,-0.5065999999999999,0.00858137518116998,-0.522,-0.506,-0.492,-10.132,0.9038,0.007039886362719223,0.892,0.903,0.916,18.076,,,,,,0.0,-69.0,0.0,-69.0,-69.0,-69.0,-1380.0,,,,,,0.0,,,,,,0.0
0.1539,0.006114736298484185,0.142,0.156,0.166,3.0780000000000003,-0.5067999999999999,0.006645299090334466,-0.52,-0.506,-0.496,-10.136,0.9074,0.008416650165000332,0.892,0.908,0.926,18.148,,,,,,0.0,-69.0,0.0,-69.0,-69.0,-69.0,-1380.0,,,,,,0.0,,,,,,0.0
0.15330000000000005,0.007804485889538148,0.134,0.154,0.166,3.0660000000000007,-0.5037,0.006819824044651011,-0.52,-0.506,-0.488,-10.074,0.9067999999999999,0.009086253353280446,0.888,0.91,0.92,18.136,,,,,,0.0,-69.0,0.0,-69.0,-69.0,-69.0,-1380.0,,,,,,0.0,,,,,,0.0
0.046799999999999994,0.08690316449934375,-0.19,0.044,0.152,0.9359999999999999,-0.5835,0.08121791674255134,-0.788,-0.5640000000000001,-0.49,-11.67,0.8041,0.14900265098312848,0.51,0.87,0.99,16.082,,,,,,0.0,-71.7,1.6155494421403511,-73.0,-73.0,-69.0,-1434.0,-100.5,0.5,-101.0,,-100.0,-804.0,,,,,,0.0
-0.16557894736842105,0.21149749675997132,-0.484,-0.218,0.188,-3.146,-0.9202105263157896,0.4389566072484744,-2.35,-0.84,-0.496,-17.484,-0.004000000000000006,0.39858750607614385,-0.704,-0.078,0.556,-0.07600000000000012,,,,,,0.0,-69.47368421052632,1.093926825832975,-71.0,-70.0,-68.0,-1320.0,,,,,,0.0,,,,,,0.0
-0.18480000000000002,0.04613198456602534,-0.318,-0.162,-0.128,-3.696,-0.7863,0.07429744275545425,-0.942,-0.783,-0.668,-15.725999999999999,-0.46510000000000007,0.07019821935063596,-0.564,-0.482,-0.258,-9.302000000000001,,,,,,0.0,-68.65,0.47696960070847283,-69.0,-69.0,-68.0,-1373.0,,,,,,0.0,,,,,,0.0
-0.15830000000000002,0.005701754116059379,-0.168,-0.16,-0.144,-3.1660000000000004,-0.7666999999999999,0.006964912059746345,-0.784,-0.766,-0.752,-15.334,-0.48790000000000006,0.012007914056987585,-0.516,-0.488,-0.468,-9.758000000000001,,,,,,0.0,-69.0,0.0,-69.0,-69.0,-69.0,-1380.0,,,,,,0.0,,,,,,0.0
-0.1661,0.014134709052541548,-0.212,-0.165,-0.142,-3.322,-0.7922,0.05737560457197815,-1.032,-0.776,-0.76,-15.844,-0.4779,0.018082864817279366,-0.508,-0.482,-0.432,-9.558,,,,,,0.0,-69.2,1.8330302779823362,-77.0,-69.0,-68.0,-1384.0,,,,,,0.0,,,,,,0.0
-0.3072,0.29625354006323706,-0.958,-0.257,0.344,-6.143999999999999,-0.7803,0.3132713041438682,-1.17,-0.833,-0.144,-15.606,-0.21240000000000006,0.2601104380835187,-0.754,-0.17099999999999999,0.472,-4.248000000000001,,,,,,0.0,-73.25,2.1880356487041066,-77.0,-73.0,-71.0,-1465.0,,,,,,0.0,,,,,,0.0
0.38839999999999997,0.09277629007456593,0.238,0.388,0.544,7.767999999999999,-0.7301,0.10429280895632258,-0.994,-0.731,-0.54,-14.602,0.5849,0.10539539838152327,0.368,0.602,0.71,11.698,,,,,,0.0,-70.9,2.447447650104083,-74.0,-70.0,-68.0,-1418.0,-97.0,0.0,-97.0,,-97.0,-97.0,,,,,,0.0
0.12530000000000002,0.11993544096721369,-0.148,0.186,0.24,2.5060000000000002,-0.681,0.08507761162609116,-0.93,-0.685,-0.552,-13.620000000000001,0.776,0.1367742665854948,0.572,0.765,1.168,15.520000000000001,,,,,,0.0,-73.3,1.7058722109231979,-76.0,-73.0,-71.0,-1466.0,-97.91666666666667,3.7739972914080844,-103.0,,-94.0,-1175.0,,,,,,0.0
0.2291,0.008705745229444747,0.206,0.23,0.244,4.582,-0.6461,0.02225735833381851,-0.696,-0.642,-0.592,-12.922,0.781,0.016558985476169748,0.736,0.782,0.806,15.620000000000001,,,,,,0.0,-75.05,0.5894913061275798,-76.0,-75.0,-74.0,-1501.0,-95.66666666666667,0.4714045207910317,-96.0,,-95.0,-1148.0,,,,,,0.0
0.22840000000000002,0.0054626001134990615,0.22,0.227,0.24,4.5680000000000005,-0.6463000000000001,0.007078841713161843,-0.656,-0.648,-0.632,-12.926000000000002,0.7877000000000001,0.01631287834810276,0.77,0.784,0.844,15.754000000000001,,,,,,0.0,-74.95,0.21794494717703367,-75.0,-75.0,-74.0,-1499.0,-95.8125,0.5266343608235224,-97.0,,-95.0,-1533.0,,,,,,0.0
0.2157,0.1068780145773676,-0.002,0.23399999999999999,0.448,4.314,-0.6191000000000001,0.05504716159803338,-0.752,-0.634,-0.51,-12.382000000000001,0.8221999999999999,0.10124603695947805,0.72,0.797,1.16,16.444,,,,,,0.0,-73.3,1.2288205727444508,-75.0,-74.0,-72.0,-1466.0,-97.21052631578948,2.092063885721241,-100.0,,-95.0,-1847.0,,,,,,0.0
0.4367000000000001,0.1787638386251537,0.128,0.41600000000000004,0.688,8.734000000000002,-0.6394,0.11645101974650116,-0.9,-0.655,-0.41,-12.788,0.5987999999999999,0.20309839979674882,0.216,0.639,0.924,11.975999999999997,,,,,,0.0,-69.6,2.0591260281974004,-72.0,-69.0,-67.0,-1392.0,,,,,,0.0,,,,,,0.0
0.8255000000000001,0.11589801551364028,0.654,0.815,1.004,16.51,-0.42379999999999995,0.1122317245701945,-0.616,-0.444,-0.186,-8.475999999999999,0.33019999999999994,0.23766606825544115,-0.084,0.255,0.7,6.603999999999999,,,,,,0.0,-71.9,1.729161646579058,-74.0,-72.0,-69.0,-1438.0,,,,,,0.0,,,,,,0.0
0.5499,0.06495683181929364,0.46,0.539,0.656,10.998000000000001,-0.589,0.12080314565440751,-0.794,-0.617,-0.328,-11.78,0.6216999999999999,0.07271114082449814,0.552,0.608,0.912,12.434,,,,,,0.0,-72.85,1.5898113095584643,-75.0,-73.0,-70.0,-1457.0,,,,,,0.0,,,,,,0.0
0.47769999999999985,0.008252878285786112,0.462,0.478,0.502,9.553999999999997,-0.6985999999999998,0.007851114570556216,-0.714,-0.697,-0.688,-13.971999999999996,0.5742999999999998,0.011068423555321671,0.546,0.574,0.592,11.485999999999997,,,,,,0.0,-74.75,0.4330127018922193,-75.0,-75.0,-74.0,-1495.0,,,,,,0.0,,,,,,0.0
0.4728,0.008255906976220105,0.454,0.472,0.486,9.456,-0.6991,0.011549458861782222,-0.724,-0.697,-0.682,-13.982000000000001,0.5816,0.007310266752998834,0.572,0.581,0.594,11.632,,,,,,0.0,-74.1,0.43588989435406733,-76.0,-74.0,-74.0,-1482.0,,,,,,0.0,,,,,,0.0
0.6948,0.32933836703305613,0.376,0.5409999999999999,1.43,13.895999999999999,-0.6513000000000001,0.16238999353408448,-0.848,-0.717,-0.344,-13.026000000000002,0.3248,0.24186723630950926,-0.026,0.432,0.598,6.4959999999999996,,,,,,0.0,-74.05,3.232259271778797,-77.0,-76.0,-68.0,-1481.0,,,,,,0.0,,,,,,0.0
0.842,0.10639924811764415,0.592,0.864,0.976,16.84,-0.39630000000000004,0.0827967994550514,-0.516,-0.41100000000000003,-0.224,-7.926000000000001,0.165,0.03658688289537659,0.102,0.167,0.24,3.3000000000000003,,,,,,0.0,-73.5,3.456877203488721,-78.0,-73.0,-68.0,-1470.0,,,,,,0.0,,,,,,0.0
0.8726,0.01892194493174527,0.824,0.88,0.896,17.452,-0.43529999999999996,0.027307691224268675,-0.472,-0.441,-0.372,-8.706,0.13990000000000002,0.02145203953007732,0.094,0.14,0.184,2.7980000000000005,,,,,,0.0,-72.25,2.4672859582950655,-75.0,-73.0,-68.0,-1445.0,,,,,,0.0,,,,,,0.0
0.884,0.011153474794878958,0.864,0.885,0.902,17.68,-0.42519999999999997,0.017881834357805694,-0.464,-0.424,-0.386,-8.504,0.14440000000000003,0.011909659944767524,0.104,0.145,0.158,2.8880000000000003,,,,,,0.0,-68.7,0.5567764362830021,-70.0,-69.0,-68.0,-1374.0,,,,,,0.0,,,,,,0.0
0.8980000000000002,0.005727128425310546,0.888,0.898,0.908,17.960000000000004,-0.3894,0.01183384975398962,-0.41,-0.39,-0.362,-7.788,0.1736,0.01001199280862706,0.156,0.173,0.188,3.472,,,,,,0.0,-70.25,0.4330127018922193,-71.0,-70.0,-70.0,-1405.0,,,,,,0.0,,,,,,0.0
0.9018,0.009357350052231676,0.87,0.903,0.914,18.036,-0.37660000000000005,0.010622617379911603,-0.41,-0.377,-0.36,-7.532000000000001,0.18130000000000002,0.011717934971657762,0.16,0.184,0.204,3.6260000000000003,,,,,,0.0,-69.7,1.1445523142259597,-71.0,-70.0,-68.0,-1394.0,,,,,,0.0,,,,,,0.0
0.9019,0.007495998932764072,0.878,0.903,0.912,18.038,-0.3747,0.008130805618141421,-0.388,-0.372,-0.36,-7.494,0.18930000000000002,0.008928045698807776,0.176,0.19,0.208,3.7860000000000005,,,,,,0.0,-68.8,0.39999999999999997,-69.0,-69.0,-68.0,-1376.0,,,,,,0.0,,,,,,0.0
0.9086000000000002,0.03038486465331053,0.866,0.904,1.004,18.172000000000004,-0.3891000000000001,0.03171419240655515,-0.456,-0.371,-0.356,-7.782000000000002,0.15389999999999998,0.03514242450372484,0.088,0.172,0.19,3.078,,,,,,0.0,-69.25,1.0897247358851685,-71.0,-69.0,-66.0,-1385.0,,,,,,0.0,,,,,,0.0
0.9979000000000001,0.1398405878134099,0.786,0.968,1.342,19.958000000000002,-0.2374,0.1611261617491089,-0.506,-0.286,0.126,-4.748,0.1547,0.09185047631885204,-0.036,0.137,0.288,3.094,,,,,,0.0,-68.4,2.7276363393971708,-73.0,-67.0,-66.0,-1368.0,,,,,,0.0,,,,,,0.0
0.9547000000000001,0.13880385441334117,0.8,0.911,1.324,19.094,-0.3547,0.1254388695739881,-0.544,-0.384,-0.18,-7.094,0.21170000000000005,0.14776098943902616,-0.026,0.256,0.472,4.234000000000001,-94.0,0.0,-94.0,,-94.0,-94.0,-61.95,2.5391927851189244,-66.0,-62.0,-58.0,-1239.0,-98.44444444444444,3.3035708327374453,-101.0,,-90.0,-886.0,,,,,,0.0
0.9180999999999999,0.08054185247435026,0.758,0.915,1.084,18.362,-0.34120000000000006,0.14474446448828363,-0.57,-0.32999999999999996,-0.098,-6.824000000000001,0.209,0.15000999966668888,-0.05,0.196,0.454,4.18,-94.0,0.0,-94.0,,-94.0,-658.0,-66.05,2.3973944189473704,-70.0,-65.0,-64.0,-1321.0,-92.75,3.307189138830738,-96.0,,-88.0,-742.0,,,,,,0.0
0.909,0.06854341689761316,0.76,0.902,1.042,18.18,-0.29700000000000004,0.07445401265210626,-0.45,-0.272,-0.176,-5.940000000000001,0.2603,0.043008255021565335,0.142,0.27,0.316,5.2059999999999995,-97.5,0.5,-98.0,,-97.0,-780.0,-70.05,1.627114009527298,-75.0,-69.0,-69.0,-1401.0,-88.0625,3.4363634484728185,-101.0,,-86.0,-1409.0,,,,,,0.0
0.7144999999999999,0.13607626538085177,0.524,0.7,1.0,14.29,-0.6759999999999999,0.11209995539695812,-0.948,-0.63,-0.554,-13.52,-0.0348,0.1705501685721829,-0.322,-0.008,0.23,-0.696,-99.46153846153847,3.433217477603292,-102.0,,-89.0,-1293.0,-76.0,4.123105625617661,-84.0,-75.0,-71.0,-1520.0,-92.0625,4.943034872424025,-101.0,,-86.0,-1473.0,,,,,,0.0
0.8700999999999999,0.07415247804355563,0.758,0.857,1.012,17.401999999999997,-0.46209999999999996,0.03975663466643021,-0.544,-0.46399999999999997,-0.386,-9.241999999999999,0.2743000000000001,0.0627192952766531,0.078,0.295,0.334,5.4860000000000015,-90.47368421052632,1.4997691419763164,-93.0,,-89.0,-1719.0,-70.4,1.0198039027185568,-72.0,-70.0,-69.0,-1408.0,-90.1,3.223352292257239,-95.0,-90.0,-85.0,-1802.0,,,,,,0.0
0.9235000000000001,0.2017303893814712,0.642,0.878,1.422,18.470000000000002,-0.3733000000000001,0.07622670135851348,-0.528,-0.372,-0.222,-7.466000000000001,0.24080000000000004,0.0837744591149355,0.12,0.239,0.39,4.816000000000001,-88.05882352941177,8.934207810665265,-96.0,,-69.0,-1497.0,-72.8,5.015974481593782,-91.0,-71.0,-68.0,-1456.0,-86.65,4.840196277011915,-92.0,-88.0,-69.0,-1733.0,,,,,,0.0
0.9359999999999999,0.1752095887786967,0.658,0.9359999999999999,1.328,18.72,-0.38710000000000006,0.1461512572645203,-0.704,-0.356,-0.16,-7.742000000000001,0.196,0.12237810261644033,0.078,0.14300000000000002,0.454,3.9200000000000004,-70.35,1.7399712641305316,-73.0,-70.0,-68.0,-1407.0,-83.05,4.432550056118938,-91.0,-83.0,-76.0,-1661.0,-74.15,3.539420856580918,-80.0,-73.0,-69.0,-1483.0,,,,,,0.0
0.9363999999999999,0.1684536731567466,0.648,0.906,1.298,18.727999999999998,-0.3952,0.1687642142161661,-0.68,-0.396,-0.174,-7.904,0.21869999999999998,0.07858059556913526,0.096,0.221,0.334,4.374,-74.35,2.2643983748448506,-77.0,-73.0,-72.0,-1487.0,-82.7,2.9512709126747416,-87.0,-83.0,-79.0,-1654.0,-74.7,3.2109188716004646,-82.0,-74.0,-71.0,-1494.0,,,,,,0.0
0.8382,0.22235458169329458,0.422,0.838,1.248,16.764,-0.5208,0.24989709882269542,-0.88,-0.425,-0.164,-10.416,0.1149,0.08362170770798692,-0.064,0.097,0.288,2.298,-82.1,6.35531273817426,-93.0,-81.0,-75.0,-1642.0,-91.86666666666666,3.0521395046025592,-94.0,,-86.0,-1378.0,-78.7,2.0273134932713295,-82.0,-79.0,-76.0,-1574.0,,,,,,0.0
0.8112,0.1429299128943973,0.6,0.7909999999999999,1.138,16.224,-0.5649,0.12435348808939779,-0.826,-0.584,-0.35,-11.298,0.06130000000000001,0.07872553588258387,-0.116,0.08499999999999999,0.166,1.2260000000000002,-79.8,5.6000000000000005,-93.0,-77.0,-77.0,-1596.0,,,,,,0.0,-81.95,4.005933099790859,-91.0,-80.0,-78.0,-1639.0,,,,,,0.0
0.5808,0.3793675790048486,-0.286,0.736,1.118,11.616,-0.7445999999999999,0.28720591915905913,-1.328,-0.668,-0.282,-14.892,0.13720000000000002,0.23000904330047547,-0.098,0.034,0.652,2.744,-74.25,2.021756661915573,-78.0,-73.0,-72.0,-1485.0,-103.0,0.0,-103.0,,-103.0,-103.0,-82.45,7.6777275283771305,-94.0,-78.0,-75.0,-1649.0,,,,,,0.0
-0.5464000000000001,0.22845008207483755,-0.868,-0.633,-0.104,-10.928000000000003,-0.2387,0.14710441869638044,-0.586,-0.20600000000000002,0.032,-4.774,0.7246,0.1403140762717697,0.524,0.719,1.062,14.492,-82.15,3.7453304260105007,-87.0,-81.0,-78.0,-1643.0,-103.0,0.0,-103.0,,-103.0,-309.0,-79.9,7.347788783028538,-94.0,-78.0,-74.0,-1598.0,,,,,,0.0
-0.24259999999999998,0.5095936027855923,-0.72,-0.401,1.144,-4.851999999999999,-0.6526,0.8001797548051313,-2.738,-0.33499999999999996,0.424,-13.052,0.41979999999999995,0.25776493167225056,-0.034,0.45699999999999996,0.806,8.395999999999999,-79.3,6.009159675029446,-90.0,-78.0,-71.0,-1586.0,-101.0,0.0,-101.0,,-101.0,-505.0,-79.75,7.549006557157041,-93.0,-74.0,-74.0,-1595.0,,,,,,0.0
0.731,0.43211051827049984,0.092,0.751,1.392,11.696,-0.625875,0.23498347681273254,-1.118,-0.5609999999999999,-0.29,-10.014,0.280875,0.14541486985518368,0.052,0.285,0.67,4.494,-68.8125,1.1301963325015703,-71.0,-68.0,-68.0,-1101.0,-101.0,0.0,-101.0,,-101.0,-303.0,-91.54545454545455,6.035706426435575,-98.0,,-84.0,-1007.0,,,,,,0.0
1.0444,0.22624641433622766,0.728,1.0310000000000001,1.56,20.887999999999998,-0.344,0.1909293062890032,-0.624,-0.358,-0.032,-6.88,0.2244,0.1573856410222991,-0.04,0.29300000000000004,0.462,4.4879999999999995,-67.8,1.1661903789690602,-70.0,-67.0,-67.0,-1356.0,,,,,,0.0,,,,,,0.0,,,,,,0.0
0.9785999999999999,0.13758648189411635,0.758,1.02,1.176,19.572,-0.3970000000000001,0.22173993776494122,-0.69,-0.41500000000000004,-0.002,-7.940000000000001,0.25360000000000005,0.11675375796949751,-0.02,0.265,0.48,5.072000000000001,-68.85,3.1823733281939126,-75.0,-68.0,-66.0,-1377.0,,,,,,0.0,,,,,,0.0,,,,,,0.0
0.9520000000000002,0.2009905470413969,0.638,0.935,1.394,19.040000000000003,-0.40599999999999997,0.15315351775261318,-0.65,-0.436,-0.148,-8.12,0.215,0.07565315591566554,0.012,0.221,0.364,4.3,-70.0,1.61245154965971,-73.0,-69.0,-68.0,-1400.0,,,,,,0.0,-102.0,0.0,-102.0,,-102.0,-408.0,,,,,,0.0
0.6386000000000001,0.30675403827822706,0.062,0.772,1.062,12.772,-0.6335000000000001,0.21911172948977425,-0.922,-0.716,-0.222,-12.670000000000002,0.14909999999999998,0.21252244587337124,-0.196,0.054000000000000006,0.478,2.9819999999999998,-71.7,1.5842979517754858,-73.0,-73.0,-69.0,-1434.0,,,,,,0.0,,,,,,0.0,,,,,,0.0
0.1508,0.1866862608763698,-0.058,0.128,0.614,3.016,-0.9368999999999998,0.11983401019743938,-1.172,-0.909,-0.69,-18.737999999999996,-0.0239,0.10994630507661456,-0.138,-0.057,0.266,-0.47800000000000004,-73.3,2.511971337416094,-78.0,-73.0,-71.0,-1466.0,,,,,,0.0,,,,,,0.0,,,,,,0.0
0.5064,0.08052229504925949,0.328,0.504,0.622,10.128,-0.747,0.21943791832771292,-1.018,-0.844,-0.238,-14.94,0.346,0.2733503246751319,-0.03,0.31,0.774,6.92,-71.05,0.9205976319760985,-73.0,-71.0,-70.0,-1421.0,,,,,,0.0,,,,,,0.0,,,,,,0.0
0.7017,0.08197871675014193,0.552,0.696,0.878,14.034,-0.0284,0.3238824478109303,-0.89,0.047,0.322,-0.5680000000000001,0.703,0.18567121478570664,0.082,0.765,0.862,14.059999999999999,-68.7,1.7635192088548397,-72.0,-68.0,-67.0,-1374.0,,,,,,0.0,,,,,,0.0,,,,,,0.0
0.14130000000000004,0.17963215191050852,-0.046,0.10200000000000001,0.62,2.8260000000000005,-0.9372999999999999,0.07753005868693767,-1.032,-0.967,-0.794,-18.746,-0.012700000000000006,0.0397757463789179,-0.09,-0.006,0.046,-0.2540000000000001,-73.5,1.161895003862225,-75.0,-74.0,-72.0,-1470.0,,,,,,0.0,,,,,,0.0,,,,,,0.0
0.18129999999999996,0.1314644818953013,-0.144,0.183,0.344,3.6259999999999994,-1.0072999999999999,0.09752389450796146,-1.234,-0.986,-0.866,-20.145999999999997,0.17300000000000001,0.14510065471940503,0.008,0.153,0.566,3.4600000000000004,-72.95,1.9358460682605938,-75.0,-74.0,-69.0,-1459.0,,,,,,0.0,,,,,,0.0,,,,,,0.0
0.14357894736842103,0.1759049730871379,-0.148,0.176,0.482,2.7279999999999998,-0.8755789473684212,0.16920193970191943,-1.122,-0.912,-0.498,-16.636000000000003,0.2824210526315789,0.3023651183915641,-0.114,0.162,0.838,5.366,-71.78947368421052,1.6726577454811267,-74.0,-72.0,-69.0,-1364.0,,,,,,0.0,,,,,,0.0,,,,,,0.0
0.29500000000000004,0.10262066068779717,0.126,0.29,0.462,5.9,-0.6527000000000001,0.20266057830767187,-0.946,-0.7010000000000001,-0.196,-13.054000000000002,0.7249000000000001,0.2197812321377783,0.368,0.731,1.216,14.498000000000001,-71.4,1.5620499351813308,-74.0,-71.0,-70.0,-1428.0,,,,,,0.0,,,,,,0.0,,,,,,0.0
0.09399999999999999,0.18059457356188752,-0.312,0.14400000000000002,0.384,1.8799999999999997,-0.8645999999999999,0.24698186168218914,-1.178,-0.948,-0.154,-17.291999999999998,-0.10579999999999998,0.4357310638455789,-0.672,-0.199,1.102,-2.1159999999999997,-70.6,1.6852299546352716,-74.0,-70.0,-68.0,-1412.0,,,,,,0.0,,,,,,0.0,,,,,,0.0
-0.3638,0.24486232866653862,-0.65,-0.492,0.118,-7.276000000000001,-0.7595999999999999,0.23176505344853005,-1.172,-0.662,-0.51,-15.191999999999998,-0.08499999999999999,0.0981539606944111,-0.354,-0.076,0.056,-1.7,-70.75,2.7363296585024255,-74.0,-70.0,-67.0,-1415.0,,,,,,0.0,,,,,,0.0,,,,,,0.0
-0.12920000000000004,0.15942948284429703,-0.458,-0.051000000000000004,0.06,-2.5840000000000005,-0.9879000000000001,0.06861625171925383,-1.082,-0.985,-0.826,-19.758000000000003,0.1313,0.09798831562997702,-0.008,0.125,0.396,2.626,-75.5,4.283689998120779,-82.0,-76.0,-69.0,-1510.0,,,,,,0.0,,,,,,0.0,,,,,,0.0
0.0109,0.03644982853183263,-0.052,0.024,0.076,0.218,-0.9769,0.027265179258534136,-1.022,-0.977,-0.91,-19.538,-0.030400000000000003,0.047495684014444935,-0.098,-0.033,0.092,-0.6080000000000001,-71.55,1.5960889699512366,-75.0,-71.0,-70.0,-1431.0,,,,,,0.0,,,,,,0.0,,,,,,0.0
0.04189473684210527,0.0199100470190095,-0.002,0.044,0.072,0.7960000000000002,-0.9646315789473684,0.016809178339654028,-1.002,-0.96,-0.938,-18.328,-0.032105263157894734,0.02365963637404008,-0.088,-0.034,0.002,-0.61,-69.15789473684211,0.36464227527765836,-70.0,-69.0,-69.0,-1314.0,,,,,,0.0,,,,,,0.0,,,,,,0.0
0.030300000000000004,0.03129392912371343,0.002,0.028,0.152,0.6060000000000001,-0.9648,0.0457488797677058,-1.096,-0.968,-0.848,-19.296,-0.044500000000000005,0.021705989956691683,-0.09,-0.045,0.002,-0.8900000000000001,-68.8,0.7483314773547882,-70.0,-69.0,-68.0,-1376.0,,,,,,0.0,,,,,,0.0,,,,,,0.0
0.0603,0.05824182346046525,-0.11,0.07100000000000001,0.156,1.206,-0.9965999999999999,0.053009810412790605,-1.082,-0.972,-0.928,-19.932,-0.0739,0.04262616567321063,-0.16,-0.08,0.006,-1.478,-70.6,2.416609194718914,-75.0,-70.0,-68.0,-1412.0,,,,,,0.0,,,,,,0.0,,,,,,0.0
-0.4032,0.17769006725194295,-0.628,-0.402,-0.11,-8.064,-0.7941,0.10950520535572726,-0.948,-0.8260000000000001,-0.574,-15.882,-0.006799999999999998,0.05179729722678588,-0.088,0.004,0.092,-0.13599999999999995,-70.2,3.249615361854384,-75.0,-71.0,-65.0,-1404.0,,,,,,0.0,,,,,,0.0,,,,,,0.0
-0.2465,0.10818109816414326,-0.498,-0.237,-0.042,-4.93,-0.9463000000000001,0.16228773829220744,-1.306,-0.962,-0.528,-18.926000000000002,0.08049999999999999,0.06509339444213982,-0.018,0.07400000000000001,0.216,1.6099999999999999,-70.0,1.8973665961010275,-72.0,-70.0,-67.0,-1400.0,,,,,,0.0,,,,,,0.0,,,,,,0.0
0.1962,0.19289261261126614,-0.196,0.19,0.524,3.9240000000000004,-0.748,0.19956552808538852,-1.134,-0.759,-0.382,-14.96,0.5482,0.2658006019556765,0.07,0.58,0.982,10.964,-73.0,1.6733200530681511,-75.0,-73.0,-70.0,-1460.0,,,,,,0.0,,,,,,0.0,,,,,,0.0
0.1285,0.22124093201756315,-0.228,0.175,0.472,2.5700000000000003,-0.891,0.3039075517324306,-1.48,-0.892,-0.224,-17.82,0.5027,0.10477074973483773,0.272,0.504,0.672,10.054,-72.6,2.8705400188814645,-77.0,-73.0,-69.0,-1452.0,,,,,,0.0,,,,,,0.0,,,,,,0.0
0.33160000000000006,0.31779150397705724,-0.18,0.446,0.672,6.6320000000000014,-0.1668,0.21998309025922877,-0.592,-0.14900000000000002,0.176,-3.336,0.9289000000000002,0.10148985170941968,0.67,0.915,1.132,18.578000000000003,-71.8,1.1661903789690602,-74.0,-71.0,-71.0,-1436.0,,,,,,0.0,,,,,,0.0,,,,,,0.0
0.1494,0.3150733882764459,-0.388,0.08399999999999999,0.734,2.988,-0.5123,0.23195626742987566,-0.898,-0.443,-0.058,-10.246,0.7863999999999999,0.22801105236369576,0.176,0.902,0.978,15.727999999999998,-72.0,1.5491933384829668,-75.0,-71.0,-71.0,-1440.0,,,,,,0.0,,,,,,0.0,,,,,,0.0
0.4896,0.26110656828199474,0.008,0.535,0.894,9.792,-0.13269999999999998,0.28500194736176804,-0.826,-0.032,0.254,-2.654,0.9185000000000001,0.1437523912844583,0.638,0.927,1.184,18.37,-70.6,1.8547236990991407,-73.0,-71.0,-68.0,-1412.0,,,,,,0.0,,,,,,0.0,,,,,,0.0
0.014900000000000019,0.23712737083685634,-0.384,0.0,0.414,0.2980000000000004,-0.6518,0.1937915374829355,-1.034,-0.653,-0.322,-13.036000000000001,0.6939,0.2683046589233962,0.2,0.659,1.184,13.878,-72.2,2.4819347291981715,-76.0,-73.0,-69.0,-1444.0,,,,,,0.0,,,,,,0.0,,,,,,0.0
0.1607,0.22443197187566657,-0.346,0.22,0.414,3.214,-0.9484999999999999,0.047311203747104125,-1.072,-0.937,-0.846,-18.97,0.2492,0.050229075245319804,0.126,0.255,0.332,4.984,-73.4,1.7435595774162693,-76.0,-74.0,-71.0,-1468.0,,,,,,0.0,,,,,,0.0,,,,,,0.0
0.27260000000000006,0.09081431605204104,0.158,0.22599999999999998,0.414,5.452000000000001,-0.9372,0.08048204768766763,-1.118,-0.914,-0.84,-18.744,0.21080000000000002,0.05381226625965497,0.126,0.218,0.318,4.216,-71.6,1.854723699099141,-74.0,-72.0,-69.0,-1432.0,,,,,,0.0,,,,,,0.0,,,,,,0.0
-0.061,0.17312134472675517,-0.288,-0.038,0.198,-1.22,-0.9073,0.17191541524831333,-1.188,-0.945,-0.574,-18.146,0.0546,0.26394704014252557,-0.48,0.119,0.518,1.092,-71.8,2.561249694973139,-75.0,-72.0,-68.0,-1436.0,,,,,,0.0,,,,,,0.0,,,,,,0.0
0.40149999999999997,0.07926884633952988,0.226,0.401,0.544,8.03,-0.7184999999999999,0.15901053424223188,-1.256,-0.664,-0.558,-14.37,0.7173,0.07231396822191409,0.6,0.707,0.962,14.346,-71.0,0.0,-71.0,-71.0,-71.0,-1420.0,,,,,,0.0,,,,,,0.0,,,,,,0.0
0.2314,0.1078222611523242,0.062,0.251,0.492,4.628,-0.8707,0.10470582600791613,-1.104,-0.893,-0.592,-17.414,0.054000000000000006,0.39217037113989117,-0.36,-0.16299999999999998,0.816,1.08,-68.6,2.3323807579381204,-73.0,-67.0,-67.0,-1372.0,,,,,,0.0,,,,,,0.0,,,,,,0.0
0.23870000000000005,0.05994756041741815,0.076,0.23199999999999998,0.376,4.774000000000001,-0.9118999999999999,0.065694672538951,-1.086,-0.893,-0.826,-18.238,-0.2064,0.059828421339694404,-0.282,-0.225,-0.024,-4.128,-68.6,1.2,-71.0,-68.0,-68.0,-1372.0,,,,,,0.0,,,,,,0.0,,,,,,0.0
0.16460000000000002,0.15829226133958665,-0.058,0.098,0.482,3.2920000000000003,-0.9359,0.1278600406694758,-1.188,-0.949,-0.728,-18.718,0.0346,0.1421521719848135,-0.188,0.040999999999999995,0.294,0.692,-70.4,1.0198039027185568,-72.0,-70.0,-69.0,-1408.0,,,,,,0.0,,,,,,0.0,,,,,,0.0
-0.004099999999999991,0.18668419858145463,-0.2,-0.061,0.384,-0.08199999999999982,-0.8542,0.17002576275376624,-1.138,-0.8180000000000001,-0.496,-17.084,-0.3266,0.30359782607917335,-0.756,-0.41000000000000003,0.104,-6.532,-73.4,0.4898979485566356,-74.0,-73.0,-73.0,-1468.0,,,,,,0.0,,,,,,0.0,,,,,,0.0
-0.1479,0.13638984566308446,-0.408,-0.176,0.146,-2.958,-0.9144,0.12712293262822408,-1.13,-0.921,-0.584,-18.288,-0.0338,0.2634394807161599,-0.596,0.091,0.224,-0.6759999999999999,-73.2,1.5999999999999999,-76.0,-73.0,-71.0,-1464.0,,,,,,0.0,,,,,,0.0,,,,,,0.0
0.3518,0.06276910067859823,0.274,0.329,0.478,7.0360000000000005,-0.9251000000000001,0.03625727513203384,-1.05,-0.919,-0.868,-18.502000000000002,0.22890000000000002,0.03286624408112372,0.134,0.24,0.268,4.578,-69.4,0.4898979485566356,-70.0,-69.0,-69.0,-1388.0,,,,,,0.0,,,,,,0.0,,,,,,0.0
0.303,0.008637129152675681,0.284,0.304,0.318,6.06,-0.914,0.011419281938896169,-0.936,-0.914,-0.888,-18.28,0.25129999999999997,0.010719608201795443,0.23,0.25,0.27,5.025999999999999,-69.0,0.0,-69.0,-69.0,-69.0,-1380.0,,,,,,0.0,,,,,,0.0,,,,,,0.0
0.3234,0.03904407765590064,0.294,0.303,0.422,6.468,-0.9181000000000001,0.01940592692967794,-0.968,-0.914,-0.896,-18.362000000000002,0.25510000000000005,0.013819913169047054,0.216,0.26,0.27,5.102000000000001,-70.0,0.8944271909999159,-71.0,-70.0,-69.0,-1400.0,,,,,,0.0,,,,,,0.0,,,,,,0.0
-0.11540000000000002,0.21232531643683,-0.416,-0.14,0.248,-2.3080000000000003,-0.9189000000000002,0.10709150293090484,-1.074,-0.93,-0.71,-18.378000000000004,0.0369,0.12899841084292474,-0.208,0.039,0.248,0.7380000000000001,-72.2,2.3151673805580453,-75.0,-73.0,-69.0,-1444.0,,,,,,0.0,,,,,,0.0,,,,,,0.0
0.028600000000000004,0.0648539898541331,-0.136,0.053000000000000005,0.118,0.5720000000000001,-0.9819999999999999,0.11364330160638597,-1.338,-0.955,-0.836,-19.639999999999997,-0.0173,0.05572889735137418,-0.138,-0.023,0.078,-0.346,-68.8,0.9797958971132713,-70.0,-69.0,-67.0,-1376.0,,,,,,0.0,,,,,,0.0,,,,,,0.0
-0.08660000000000001,0.02578449146289296,-0.13,-0.089,-0.024,-1.7320000000000002,-0.9663999999999999,0.06834793339962814,-1.092,-0.962,-0.868,-19.328,0.1363,0.07376794696885633,0.02,0.163,0.264,2.726,-63.6,2.9393876913398143,-69.0,-63.0,-61.0,-1272.0,,,,,,0.0,-103.0,0.0,-103.0,,-103.0,-412.0,,,,,,0.0
-0.1455,0.07223261036401772,-0.304,-0.137,-0.032,-2.9099999999999997,-0.9569999999999999,0.038259639308284125,-1.028,-0.964,-0.89,-19.139999999999997,-0.0169,0.026933065180183263,-0.05,-0.018000000000000002,0.04,-0.33799999999999997,-64.8,2.4819347291981715,-69.0,-64.0,-62.0,-1296.0,,,,,,0.0,,,,,,0.0,,,,,,0.0
0.0809,0.14859808208721942,-0.136,0.142,0.278,1.6179999999999999,-0.9579000000000001,0.05125026829198068,-1.09,-0.945,-0.872,-19.158,0.0852,0.060293946628164924,-0.03,0.095,0.188,1.704,-65.2,1.5999999999999999,-67.0,-65.0,-63.0,-1304.0,,,,,,0.0,,,,,,0.0,,,,,,0.0
0.0927,0.2895177196649628,-0.344,0.031,0.706,1.854,-0.9381999999999999,0.17375718690172215,-1.312,-0.961,-0.488,-18.764,0.1864,0.14934738029172123,0.006,0.175,0.546,3.728,-63.4,4.409081537009721,-67.0,-66.0,-55.0,-1268.0,,,,,,0.0,,,,,,0.0,,,,,,0.0
0.14320000000000002,0.04425110168120111,0.048,0.15,0.21,2.8640000000000003,-0.9254,0.06309706807768489,-1.06,-0.912,-0.82,-18.508,0.34080000000000005,0.10358455483323756,0.144,0.33,0.498,6.816000000000001,-62.8,1.1661903789690602,-64.0,-63.0,-61.0,-1256.0,,,,,,0.0,,,,,,0.0,,,,,,0.0
0.2798,0.09353480635570911,0.072,0.284,0.458,5.596,-0.9038999999999999,0.056428627486409776,-0.986,-0.912,-0.744,-18.078,0.3068000000000001,0.06217523622793886,0.158,0.312,0.4,6.136000000000002,-66.2,2.7856776554368237,-70.0,-65.0,-63.0,-1324.0,,,,,,0.0,,,,,,0.0,,,,,,0.0
0.7545,0.2413370050365256,0.342,0.675,1.222,15.09,-0.6386,0.15125356194152917,-0.832,-0.6930000000000001,-0.334,-12.771999999999998,0.1322,0.08020448865244388,0.016,0.11,0.344,2.644,-64.8,3.655133376499413,-70.0,-63.0,-60.0,-1296.0,,,,,,0.0,,,,,,0.0,,,,,,0.0
0.8644000000000002,0.21301323902518363,0.53,0.891,1.276,17.288000000000004,-0.44350000000000006,0.13227528113748235,-0.674,-0.45799999999999996,-0.218,-8.870000000000001,0.23120000000000002,0.13704510206497714,0.038,0.199,0.432,4.6240000000000006,-69.0,2.449489742783178,-72.0,-69.0,-65.0,-1380.0,,,,,,0.0,-95.0,0.0,-95.0,,-95.0,-380.0,,,,,,0.0
0.5827,0.21368975174303517,0.272,0.5,0.998,11.654,-0.7569000000000001,0.19420656528552271,-0.986,-0.8089999999999999,-0.26,-15.138000000000002,0.10390000000000002,0.20786291155470715,-0.328,0.14100000000000001,0.404,2.0780000000000003,-67.8,2.9257477676655586,-72.0,-68.0,-63.0,-1356.0,,,,,,0.0,,,,,,0.0,,,,,,0.0
0.1604,0.05184824008585055,0.05,0.16999999999999998,0.272,3.2079999999999997,-0.8606999999999999,0.040195895312830146,-0.946,-0.865,-0.784,-17.214,-0.38509999999999994,0.03338547588398284,-0.456,-0.377,-0.34,-7.701999999999999,-71.2,1.3266499161421597,-73.0,-71.0,-69.0,-1424.0,,,,,,0.0,,,,,,0.0,,,,,,0.0
