acceleration_x_mean,acceleration_x_std,acceleration_x_min,acceleration_x_median,acceleration_x_max,acceleration_x_sum,acceleration_y_mean,acceleration_y_std,acceleration_y_min,acceleration_y_median,acceleration_y_max,acceleration_y_sum,acceleration_z_mean,acceleration_z_std,acceleration_z_min,acceleration_z_median,acceleration_z_max,acceleration_z_sum,rssi_Kitchen_AP_mean,rssi_Kitchen_AP_std,rssi_Kitchen_AP_min,rssi_Kitchen_AP_median,rssi_Kitchen_AP_max,rssi_Kitchen_AP_sum,rssi_Lounge_AP_mean,rssi_Lounge_AP_std,rssi_Lounge_AP_min,rssi_Lounge_AP_median,rssi_Lounge_AP_max,rssi_Lounge_AP_sum,rssi_Upstairs_AP_mean,rssi_Upstairs_AP_std,rssi_Upstairs_AP_min,rssi_Upstairs_AP_median,rssi_Upstairs_AP_max,rssi_Upstairs_AP_sum,rssi_Study_AP_mean,rssi_Study_AP_std,rssi_Study_AP_min,rssi_Study_AP_median,rssi_Study_AP_max,rssi_Study_AP_sum
-0.6156999999999999,0.012669254121691627,-0.644,-0.61,-0.59,-12.313999999999998,0.6931999999999999,0.013044539087296232,0.664,0.698,0.71,13.863999999999999,0.3028,0.007110555533852476,0.29,0.304,0.316,6.056,-76.7,0.45825756949558394,-77.0,-77.0,-76.0,-1534.0,,,,,,0.0,-75.0,0.0,-75.0,-75.0,-75.0,-1500.0,-79.9,1.445683229480096,-82.0,-80.0,-78.0,-1598.0
-0.6077,0.0055955339334151175,-0.622,-0.609,-0.6,-12.154,0.7054,0.0067260686883201005,0.696,0.704,0.72,14.108,0.2895,0.007262919523166967,0.27,0.292,0.3,5.789999999999999,-77.9,0.30000000000000004,-78.0,-78.0,-77.0,-1558.0,,,,,,0.0,-75.0,0.0,-75.0,-75.0,-75.0,-1500.0,-81.4,0.9165151389911681,-82.0,-82.0,-79.0,-1628.0
-0.6090000000000001,0.005882176467941102,-0.622,-0.609,-0.596,-12.180000000000001,0.7024,0.00919999999999999,0.672,0.704,0.712,14.048,0.2933,0.006790434448545985,0.28,0.294,0.304,5.866,-79.6,3.7735924528226414,-86.0,-77.0,-77.0,-1592.0,,,,,,0.0,-75.0,0.0,-75.0,-75.0,-75.0,-1500.0,-77.5,1.2041594578792296,-79.0,-77.5,-76.0,-1550.0
-0.6914,0.10681778878070824,-0.962,-0.702,-0.51,-13.828000000000001,0.6501999999999999,0.050274844604434134,0.492,0.652,0.72,13.003999999999998,0.22649999999999998,0.1314866913417476,0.048,0.22399999999999998,0.534,4.529999999999999,-81.4,3.49857113690718,-86.0,-81.5,-77.0,-1628.0,,,,,,0.0,-80.3,4.561797891182817,-88.0,-79.0,-75.0,-1606.0,-79.8,1.9899748742132402,-82.0,-81.0,-76.0,-1596.0
-0.8353999999999999,0.17480057208144373,-1.21,-0.833,-0.58,-16.708,0.4627,0.099557571284157,0.262,0.47,0.642,9.254,0.0494,0.2482362584313581,-0.3,0.027000000000000003,0.364,0.988,-79.3,1.4866068747318504,-81.0,-79.5,-77.0,-1586.0,,,,,,0.0,-80.7,2.8301943396169813,-84.0,-81.0,-76.0,-1614.0,-77.5,1.6881943016134133,-79.0,-78.0,-75.0,-1550.0
-0.6105,0.26544669898117024,-1.018,-0.601,-0.048,-12.21,0.6892999999999999,0.17200380809737906,0.414,0.677,1.032,13.785999999999998,0.1774,0.34713864665288996,-0.514,0.228,0.808,3.548,-77.4,1.4966629547095764,-81.0,-77.5,-76.0,-1548.0,,,,,,0.0,-77.6,2.3323807579381204,-81.0,-77.5,-75.0,-1552.0,-78.3,1.4177446878757822,-80.0,-78.0,-75.0,-1566.0
-0.3803157894736843,0.11832384314226647,-0.602,-0.378,-0.122,-7.226000000000001,0.8275789473684209,0.2130555439784297,0.566,0.748,1.528,15.723999999999997,0.2901052631578947,0.2435521979580433,-0.05,0.264,0.688,5.512,-73.84210526315789,1.4960705687949363,-77.0,-74.0,-72.0,-1403.0,,,,,,0.0,-75.63157894736842,1.2230473724865525,-77.0,-75.0,-74.0,-1437.0,-82.47368421052632,2.6431325325241515,-86.0,-81.0,-79.0,-1567.0
-0.2719,0.1448315918575778,-0.538,-0.292,0.076,-5.438,0.9071999999999998,0.10607619902692594,0.71,0.931,1.122,18.143999999999995,0.2829,0.09514089551817347,0.064,0.303,0.466,5.6579999999999995,-73.25,0.7664854858377946,-74.0,-73.0,-72.0,-1465.0,,,,,,0.0,-74.1,0.7681145747868607,-75.0,-74.0,-73.0,-1482.0,-79.35,0.5722761571129799,-80.0,-79.0,-78.0,-1587.0
-0.2631,0.031378177129973615,-0.296,-0.275,-0.19,-5.2620000000000005,0.8962000000000001,0.03666551513343294,0.8,0.9,1.0,17.924000000000003,0.2895,0.028919716457807804,0.232,0.29,0.352,5.789999999999999,-74.2,0.9797958971132713,-76.0,-74.0,-73.0,-1484.0,,,,,,0.0,-73.0,0.0,-73.0,-73.0,-73.0,-1460.0,-78.2,0.39999999999999997,-79.0,-78.0,-78.0,-1564.0
-0.2591,0.01659487872808958,-0.286,-0.26,-0.228,-5.1819999999999995,0.8964000000000001,0.031212817879839056,0.824,0.901,0.992,17.928,0.29209999999999997,0.01499966666296288,0.242,0.294,0.318,5.842,-74.8,0.9797958971132714,-76.0,-74.0,-74.0,-1496.0,,,,,,0.0,-74.6,1.9595917942265428,-77.0,-73.0,-73.0,-1492.0,-79.15,2.5154522456210535,-84.0,-78.0,-77.0,-1583.0
-0.26060000000000005,0.04472627862901182,-0.322,-0.271,-0.148,-5.212000000000001,0.9059000000000001,0.024045581714735035,0.872,0.9,0.99,18.118000000000002,0.26510000000000006,0.035216331438694744,0.206,0.275,0.326,5.302000000000001,-74.7,1.382027496108525,-77.0,-74.0,-73.0,-1494.0,,,,,,0.0,-71.3,0.714142842854285,-73.0,-71.0,-71.0,-1426.0,-78.65,0.9630680142129111,-80.0,-79.0,-77.0,-1573.0
-0.2445,0.012245407302331767,-0.276,-0.243,-0.226,-4.89,0.9128999999999999,0.006825686778632614,0.902,0.91,0.926,18.258,0.25120000000000003,0.009173875952943777,0.232,0.252,0.27,5.024000000000001,-76.6,0.4898979485566356,-77.0,-77.0,-76.0,-1532.0,,,,,,0.0,-71.0,0.0,-71.0,-71.0,-71.0,-1420.0,-79.45,0.9733961166965893,-81.0,-79.0,-78.0,-1589.0
-0.2479,0.006737210105080596,-0.264,-0.247,-0.238,-4.958,0.9118999999999999,0.006371028174478596,0.896,0.913,0.92,18.238,0.25050000000000006,0.008046738469715547,0.24,0.25,0.264,5.010000000000001,-77.05,1.243985530462473,-79.0,-76.0,-76.0,-1541.0,,,,,,0.0,-72.25,1.4448183276799889,-75.0,-72.0,-71.0,-1445.0,-80.6,3.1999999999999997,-87.0,-79.0,-79.0,-1612.0
-0.25630000000000003,0.008056674251823772,-0.272,-0.258,-0.24,-5.126,0.9092999999999998,0.005736723803705391,0.898,0.91,0.92,18.185999999999996,0.2534,0.011421033228215397,0.24,0.248,0.28,5.0680000000000005,-76.95,0.21794494717703367,-77.0,-77.0,-76.0,-1539.0,,,,,,0.0,-71.75,0.4330127018922193,-72.0,-72.0,-71.0,-1435.0,-79.0,0.0,-79.0,-79.0,-79.0,-1580.0
-0.252,0.00685565460040105,-0.264,-0.25,-0.242,-4.032,0.906625,0.014606826315117203,0.86,0.91,0.926,14.506,0.269625,0.016174343108763332,0.224,0.271,0.286,4.314,-76.0,0.0,-76.0,-76.0,-76.0,-1216.0,,,,,,0.0,-71.0,0.0,-71.0,-71.0,-71.0,-1136.0,-79.0,0.0,-79.0,-79.0,-79.0,-1264.0
-0.24689999999999998,0.005566866263886718,-0.258,-0.246,-0.238,-4.938,0.9043000000000001,0.0062697687357669,0.892,0.903,0.912,18.086000000000002,0.2774,0.007485986908885151,0.264,0.279,0.294,5.548,-76.05,0.6689544080129826,-77.0,-76.0,-75.0,-1521.0,,,,,,0.0,-71.2,0.4,-72.0,-71.0,-71.0,-1424.0,-79.85,1.1521718621802912,-82.0,-79.0,-79.0,-1597.0
-0.24460000000000007,0.049912323127660564,-0.32,-0.253,-0.168,-4.892000000000001,0.9077999999999999,0.02672002994010299,0.84,0.912,0.952,18.156,0.2847,0.03971536226701199,0.236,0.272,0.368,5.694,-74.75,1.840516231930596,-77.0,-76.0,-72.0,-1495.0,,,,,,0.0,-72.3,0.9539392014169459,-73.0,-73.0,-71.0,-1446.0,-80.5,1.3228756555322954,-82.0,-80.0,-78.0,-1610.0
-0.2955,0.11724653513004125,-0.416,-0.325,0.024,-5.91,0.8480000000000002,0.07220803279414278,0.626,0.864,0.966,16.960000000000004,0.4043,0.07550437073441511,0.332,0.364,0.58,8.086,-74.45,2.376446927663229,-79.0,-74.0,-72.0,-1489.0,,,,,,0.0,-73.35,0.8529361054615989,-75.0,-73.0,-72.0,-1467.0,-80.6,3.6660605559646715,-86.0,-79.0,-76.0,-1612.0
-0.12450000000000001,0.23116909395505275,-0.49,-0.136,0.262,-2.49,0.8554999999999999,0.19637298694066857,0.336,0.87,1.184,17.11,0.4189000000000001,0.13965453805730768,0.182,0.442,0.748,8.378000000000002,-75.95,1.4654350889752843,-78.0,-76.0,-73.0,-1519.0,,,,,,0.0,-73.1,1.0908712114635715,-75.0,-73.0,-72.0,-1462.0,-84.35,3.365635155509284,-90.0,-83.0,-77.0,-1687.0
-0.3863,0.16251310716369927,-0.672,-0.413,-0.114,-7.726,0.8197999999999999,0.16546407465066248,0.582,0.746,1.15,16.395999999999997,0.353,0.28446194824615817,-0.186,0.42200000000000004,0.72,7.06,-74.45,1.745709025009609,-77.0,-74.0,-72.0,-1489.0,,,,,,0.0,-75.9,1.9467922333931784,-79.0,-75.0,-72.0,-1518.0,-84.65,5.47060325741138,-94.0,-83.0,-77.0,-1693.0
-0.3453,0.08848564855387567,-0.602,-0.334,-0.164,-6.906,0.8295999999999999,0.07196832636653433,0.638,0.841,0.926,16.592,0.4282,0.0445461558386355,0.392,0.412,0.564,8.564,-74.3,0.9539392014169459,-75.0,-75.0,-73.0,-1486.0,,,,,,0.0,-72.85,0.3570714214271425,-73.0,-73.0,-72.0,-1457.0,-79.8,2.8565713714171395,-86.0,-78.0,-78.0,-1596.0
-0.3112,0.008034923770640275,-0.332,-0.308,-0.298,-6.223999999999999,0.8550000000000001,0.0071133676975115015,0.84,0.856,0.87,17.1,0.4147,0.010493331215586398,0.4,0.412,0.44,8.294,-74.95,0.21794494717703367,-75.0,-75.0,-74.0,-1499.0,,,,,,0.0,-73.0,0.0,-73.0,-73.0,-73.0,-1460.0,-78.8,0.8717797887081347,-82.0,-79.0,-78.0,-1576.0
-0.2293,0.17916615193724508,-0.466,-0.288,0.124,-4.586,0.7504000000000001,0.15950623812252612,0.338,0.785,1.04,15.008000000000001,0.5711999999999999,0.10041394325490857,0.396,0.5720000000000001,0.76,11.424,-76.4,2.4576411454889016,-81.0,-75.0,-74.0,-1528.0,,,,,,0.0,-73.2,0.8717797887081347,-77.0,-73.0,-73.0,-1464.0,-83.6,3.693237062523877,-90.0,-82.0,-78.0,-1672.0
-0.6145,0.0719162707598218,-0.72,-0.602,-0.442,-12.290000000000001,0.5997000000000001,0.17642479984401288,0.322,0.591,1.04,11.994000000000002,0.5879,0.06466057531448356,0.492,0.572,0.742,11.758,-78.75,1.8674849396983098,-81.0,-78.0,-77.0,-1575.0,,,,,,0.0,-79.35,2.1277922830953213,-82.0,-80.0,-76.0,-1587.0,-77.75,2.165063509461097,-81.0,,-75.0,-1244.0
-0.5952,0.2279643831829876,-1.06,-0.584,-0.228,-11.904,0.3472,0.2833213017053253,-0.054,0.319,0.832,6.944,0.6721999999999999,0.11362200491102066,0.448,0.662,0.888,13.443999999999997,-77.35,0.8529361054615989,-79.0,-77.0,-76.0,-1547.0,,,,,,0.0,-80.45,4.716725559114077,-89.0,-80.0,-76.0,-1609.0,-77.9,2.2781571499789037,-82.0,-77.0,-76.0,-1558.0
-0.8045,0.2534552228698395,-1.178,-0.8280000000000001,-0.398,-16.09,0.3295,0.3468439850999293,-0.376,0.398,1.07,6.59,0.3523,0.11978192685042265,0.176,0.33899999999999997,0.56,7.046,-85.45,6.822572828486333,-101.0,-84.0,-76.0,-1709.0,,,,,,0.0,-81.65,3.320767983464066,-86.0,-82.0,-77.0,-1633.0,-80.0,3.714835124201342,-85.0,-80.0,-74.0,-1600.0
-0.6833,0.17107340529725829,-0.906,-0.714,-0.328,-13.666,0.6754,0.16137422346830982,0.304,0.679,0.914,13.508,0.2538,0.09503452004403452,0.034,0.265,0.428,5.0760000000000005,-92.1,7.1407282541768815,-101.0,-97.0,-83.0,-1842.0,,,,,,0.0,-86.2,3.026549190084311,-90.0,-86.0,-82.0,-1724.0,-79.1,4.710626285325551,-87.0,-76.0,-74.0,-1582.0
-0.3723,0.16053195943487392,-0.712,-0.391,-0.114,-7.446000000000001,0.7605000000000001,0.17439251704129966,0.518,0.705,1.208,15.21,0.34609999999999996,0.3020665324063558,-0.468,0.388,0.718,6.922,-86.625,3.6550478793033614,-92.0,,-83.0,-1386.0,,,,,,0.0,-87.5,6.967783004657938,-101.0,-86.0,-82.0,-1750.0,-75.2,6.11228271597445,-90.0,-74.0,-68.0,-1504.0
-0.4779999999999999,0.20312065379965671,-0.816,-0.454,-0.204,-9.559999999999999,0.7685,0.26550847444102416,0.392,0.764,1.656,15.37,0.44300000000000006,0.13395596291319026,0.246,0.432,0.654,8.860000000000001,-94.33333333333333,6.0955357070199785,-103.0,,-88.0,-1415.0,,,,,,0.0,-79.1,3.433656942677879,-84.0,-77.0,-76.0,-1582.0,-86.6,4.862098312457287,-92.0,-90.0,-78.0,-1732.0
-0.198,0.13362335125269084,-0.606,-0.198,0.034,-3.9600000000000004,0.8048,0.27353274027070323,0.408,0.752,1.614,16.096,0.5389,0.2396326146416635,0.214,0.435,1.072,10.778,-95.47058823529412,4.852138971129713,-103.0,,-90.0,-1623.0,,,,,,0.0,-84.45,6.375539192884003,-94.0,-85.0,-71.0,-1689.0,-86.9,5.7784080852774675,-95.0,-86.0,-78.0,-1738.0
-0.20270000000000002,0.1405251223091444,-0.458,-0.225,0.048,-4.054,0.921,0.29287915596709846,0.384,0.853,1.52,18.42,0.3378,0.1955913086003568,-0.194,0.358,0.688,6.755999999999999,-85.5,7.546522377890362,-96.0,-86.0,-73.0,-1710.0,,,,,,0.0,-74.3,3.8871583451153624,-81.0,-73.0,-70.0,-1486.0,-90.54545454545455,5.758213680768405,-98.0,,-85.0,-996.0
-0.2077,0.16448012037933338,-0.712,-0.15,0.014,-4.154,0.9151,0.2731589097942807,0.392,0.895,1.422,18.302,0.3244,0.17365782447099812,0.014,0.33499999999999996,0.64,6.488,-80.75,6.53356717268599,-90.0,,-73.0,-1292.0,,,,,,0.0,-84.95,7.4864878280806675,-98.0,-84.0,-77.0,-1699.0,,,,,,0.0
-0.22480000000000003,0.10740465539258529,-0.368,-0.261,-0.032,-4.496,0.8795999999999999,0.11810605403619243,0.646,0.863,1.12,17.592,0.43079999999999996,0.12947185022235527,0.114,0.464,0.606,8.616,-87.25,1.894069692487581,-90.0,-87.0,-84.0,-1745.0,,,,,,0.0,-89.5625,3.6223050327105253,-101.0,,-86.0,-1433.0,,,,,,0.0
-0.31700000000000006,0.058940648113165496,-0.43,-0.306,-0.226,-5.072000000000001,0.7558750000000001,0.12504492942538695,0.568,0.752,1.086,12.094000000000001,0.58,0.06895288246331695,0.398,0.601,0.658,9.28,-94.26666666666667,2.9992591677871983,-97.0,,-90.0,-1414.0,,,,,,0.0,-95.4375,6.528483265659797,-102.0,-96.0,-84.0,-1527.0,-101.0,0.0,-101.0,,-101.0,-101.0
-0.19390000000000002,0.05139834627689883,-0.296,-0.194,-0.084,-3.878,0.7711,0.04813096716252439,0.678,0.784,0.844,15.422,0.6209,0.029566704246499983,0.558,0.625,0.684,12.418000000000001,-89.11764705882354,3.562589159935699,-103.0,,-87.0,-1515.0,,,,,,0.0,-88.75,2.5074887836239665,-92.0,-88.0,-84.0,-1775.0,-99.28571428571429,1.4846149779161806,-101.0,,-98.0,-695.0
-0.20659999999999998,0.03205058501806169,-0.25,-0.214,-0.148,-4.132,0.7928999999999999,0.015779416972752824,0.768,0.791,0.838,15.857999999999999,0.61,0.013535139452550917,0.582,0.609,0.642,12.2,-93.18181818181819,7.132743725793829,-103.0,,-85.0,-1025.0,,,,,,0.0,-93.1,5.078385570237849,-102.0,-91.0,-85.0,-1862.0,,,,,,0.0
-0.2517,0.13966284402087764,-0.584,-0.199,-0.088,-5.034,0.7762000000000001,0.13487460843316657,0.598,0.759,1.112,15.524000000000003,0.5704,0.11876127314912045,0.398,0.594,0.838,11.408,-89.94117647058823,4.1511244151476125,-97.0,,-85.0,-1529.0,,,,,,0.0,-85.9,1.729161646579058,-89.0,-85.0,-84.0,-1718.0,-99.5,3.5,-103.0,,-96.0,-796.0
-0.30870000000000003,0.04623970155613031,-0.378,-0.304,-0.226,-6.174,0.8581999999999999,0.059177360535934684,0.764,0.858,0.992,17.163999999999998,0.38289999999999996,0.035516052708599255,0.34,0.372,0.48,7.6579999999999995,-86.5,1.7175564037317668,-89.0,-85.0,-85.0,-1730.0,,,,,,0.0,-83.3125,4.326065620168053,-88.0,,-79.0,-1333.0,,,,,,0.0
-0.26999999999999996,0.01920416621465248,-0.32,-0.267,-0.234,-5.3999999999999995,0.8479000000000001,0.015079456223617596,0.806,0.85,0.864,16.958000000000002,0.45070000000000005,0.013270644294833612,0.406,0.454,0.476,9.014000000000001,-85.0,2.6832815729997477,-95.0,-85.0,-83.0,-1700.0,,,,,,0.0,-91.1,4.0730823708832595,-99.0,-90.0,-86.0,-1822.0,-99.0,0.0,-99.0,,-99.0,-396.0
-0.1299,0.34631862496839527,-0.442,-0.289,0.716,-2.598,0.7687,0.22267130484191267,0.262,0.843,1.19,15.374,0.5504,0.1618142144559618,0.352,0.447,0.896,11.008000000000001,-89.15,4.245880356298326,-95.0,-89.0,-78.0,-1783.0,,,,,,0.0,-85.25,7.161529166316368,-98.0,-84.0,-76.0,-1705.0,-102.88888888888889,3.281071791162978,-105.0,,-94.0,-926.0
-0.1329,0.32193507109353586,-0.754,-0.001,0.502,-2.658,0.4325,0.303045128652483,0.034,0.426,1.548,8.65,0.9881,0.3061120546466604,0.382,1.0270000000000001,1.554,19.762,-87.81818181818181,8.177776779654188,-98.0,,-78.0,-966.0,,,,,,0.0,-87.45,3.8532453853861943,-96.0,-88.0,-83.0,-1749.0,-96.5,2.0615528128088303,-102.0,,-94.0,-1544.0
-0.46790000000000004,0.25360794545912796,-1.01,-0.497,-0.16,-9.358,0.07170000000000001,0.22812301505985758,-0.446,0.183,0.32,1.4340000000000002,0.8216000000000001,0.23681097947519245,0.39,0.927,1.112,16.432000000000002,-96.0,0.0,-96.0,,-96.0,-384.0,,,,,,0.0,-95.15789473684211,1.755087579003481,-97.0,,-92.0,-1808.0,-90.2,5.546169849544818,-102.0,-90.0,-84.0,-1804.0
-0.37842105263157894,0.13448784558248483,-0.586,-0.386,-0.15,-7.1899999999999995,0.316,0.06869612721789228,0.166,0.312,0.448,6.004,0.9003157894736841,0.12093018979280606,0.718,0.888,1.128,17.105999999999998,-101.0,0.0,-101.0,,-101.0,-404.0,,,,,,0.0,-94.0,1.0,-95.0,,-93.0,-752.0,-93.63636363636364,5.580367001171929,-101.0,,-89.0,-1030.0
-0.650705882352941,0.23838865071334106,-1.146,-0.638,-0.322,-11.061999999999998,0.6998823529411764,0.3152586020383418,-0.05,0.734,1.408,11.898,0.1572941176470588,0.2605586226701217,-0.36,0.184,0.56,2.674,-98.33333333333333,4.496912521077347,-104.0,,-93.0,-1180.0,,,,,,0.0,-87.6923076923077,1.2015768732164085,-89.0,,-86.0,-1140.0,,,,,,0.0
-0.3101,0.27577416485232986,-0.904,-0.261,0.056,-6.202,0.8036999999999999,0.1326729437375986,0.568,0.792,1.056,16.073999999999998,0.37709999999999994,0.3041732894256167,-0.51,0.429,0.85,7.541999999999999,-98.5,1.5,-100.0,,-97.0,-788.0,,,,,,0.0,-91.2,4.237924020083418,-98.0,-89.0,-84.0,-1824.0,-102.0,4.0,-104.0,,-94.0,-510.0
0.16499999999999998,0.2076925612534065,-0.194,0.161,0.496,3.3,0.3882,0.2657599668874152,0.046,0.317,0.872,7.763999999999999,0.9182,0.17543990424073996,0.656,0.894,1.336,18.364,-101.0,3.0,-104.0,,-98.0,-808.0,,,,,,0.0,-92.35,5.668112560632507,-101.0,-93.0,-84.0,-1847.0,-98.5,4.5,-103.0,,-94.0,-788.0
0.5510999999999999,0.0971750482377035,0.238,0.565,0.688,11.021999999999998,0.2785,0.129904387916652,0.134,0.215,0.652,5.57,0.7794,0.1470742669538081,0.494,0.85,0.974,15.588,,,,,,0.0,,,,,,0.0,-89.6,3.4698703145794942,-95.0,-87.0,-86.0,-1792.0,-93.36842105263158,4.182803470801164,-101.0,,-90.0,-1774.0
-0.28362499999999996,0.19969253710391885,-0.666,-0.309,0.088,-4.537999999999999,0.8495,0.20460999486828596,0.538,0.819,1.342,13.592,0.6311249999999999,0.11610548813471308,0.424,0.662,0.78,10.097999999999999,-104.0,0.0,-104.0,,-104.0,-416.0,,,,,,0.0,-99.0,4.972652484064488,-103.0,,-91.0,-1089.0,-95.23076923076923,5.9762844921707785,-103.0,,-88.0,-1238.0
-0.4059999999999999,0.1509983443617843,-0.692,-0.402,-0.14,-6.495999999999999,0.7806250000000001,0.13280383795282424,0.43,0.769,1.048,12.490000000000002,0.38587499999999997,0.1835367384885108,-0.128,0.453,0.638,6.1739999999999995,,,,,,0.0,,,,,,0.0,,,,,,0.0,-97.1875,2.5792137852454187,-101.0,-96.5,-94.0,-1555.0
-0.3249473684210527,0.1417059496890844,-0.652,-0.29,-0.094,-6.174000000000001,0.8712631578947367,0.28385185945549746,0.516,0.85,1.606,16.554,0.06010526315789473,0.240409714913792,-0.282,-0.048,0.454,1.142,,,,,,0.0,,,,,,0.0,,,,,,0.0,-93.21052631578948,5.021835975526974,-100.0,-94.0,-86.0,-1771.0
-0.4035384615384615,0.6069830330139913,-1.65,-0.142,0.394,-5.2459999999999996,0.8221538461538463,1.2931686692387008,-0.562,0.156,3.548,10.688000000000002,0.13153846153846155,0.1394122913600107,-0.126,0.094,0.408,1.71,,,,,,0.0,,,,,,0.0,,,,,,0.0,-97.38461538461539,3.4538375877913308,-102.0,-96.0,-90.0,-1266.0
-0.403625,0.41541197548337483,-1.456,-0.349,0.048,-6.458,0.9701249999999999,0.8139721950871541,-0.112,0.856,3.116,15.521999999999998,0.22949999999999998,0.23785026802591586,-0.2,0.16799999999999998,0.896,3.6719999999999997,,,,,,0.0,,,,,,0.0,,,,,,0.0,-97.25,4.763139720814412,-103.0,-99.0,-90.0,-1556.0
-0.37749999999999995,0.058047825109990125,-0.488,-0.367,-0.298,-7.549999999999999,0.8517999999999999,0.0339699867530148,0.786,0.848,0.934,17.035999999999998,0.29490000000000005,0.034108503338610444,0.232,0.289,0.352,5.898000000000001,,,,,,0.0,,,,,,0.0,,,,,,0.0,-96.3,2.1702534414210706,-98.0,-98.0,-92.0,-1926.0
-0.3492,0.12977426555369134,-0.5,-0.422,-0.154,-6.984,0.8805,0.1191400436461226,0.8,0.828,1.212,17.61,0.18330000000000002,0.1664443150125591,-0.164,0.248,0.334,3.6660000000000004,,,,,,0.0,,,,,,0.0,-102.0,0.0,-102.0,,-102.0,-102.0,-93.15,7.7283568758177825,-101.0,-97.0,-79.0,-1863.0
-0.3195,0.1512545867073128,-0.632,-0.30400000000000005,-0.094,-6.39,0.9381999999999998,0.1800743179912116,0.652,0.9590000000000001,1.388,18.763999999999996,0.059699999999999996,0.18575174292587404,-0.384,0.067,0.428,1.194,,,,,,0.0,,,,,,0.0,-96.85714285714286,4.453844933748542,-102.0,,-93.0,-678.0,-92.15,7.932685547782668,-101.0,-89.0,-79.0,-1843.0
-0.36060000000000003,0.26282244957385203,-0.756,-0.393,0.326,-7.212000000000001,0.7914999999999999,0.24408512859246467,0.416,0.743,1.196,15.829999999999997,0.38639999999999997,0.30616505352505535,-0.42,0.316,1.064,7.728,-101.0,0.0,-101.0,,-101.0,-808.0,,,,,,0.0,-100.22222222222223,0.9162456945817024,-101.0,,-98.0,-902.0,-90.26666666666667,2.2350739485653612,-93.0,,-87.0,-1354.0
0.1264,0.28762447740065517,-0.224,0.016,0.752,2.528,0.49049999999999994,0.24388921665379137,0.216,0.383,0.92,9.809999999999999,0.8728,0.16479854368288577,0.432,0.882,1.144,17.456,-101.0,0.0,-101.0,,-101.0,-404.0,,,,,,0.0,-94.25,3.491060010942235,-98.0,,-89.0,-1508.0,-96.76470588235294,5.7755000981805065,-102.0,,-87.0,-1645.0
-0.08449999999999999,0.33743377127963936,-0.632,-0.129,0.472,-1.6899999999999997,0.8084,0.3327687485326709,0.248,0.886,1.43,16.168,0.7081,0.24178293984481203,0.24,0.728,1.232,14.161999999999999,,,,,,0.0,,,,,,0.0,-94.26666666666667,3.641733408999377,-99.0,,-90.0,-1414.0,-95.15,3.4391132578035286,-100.0,-94.0,-88.0,-1903.0
-0.3628421052631579,0.15546509615307114,-0.82,-0.338,-0.176,-6.894,0.7631578947368421,0.14714449152123074,0.452,0.776,1.02,14.5,0.5052631578947369,0.15833370559318632,0.316,0.48,0.95,9.6,,,,,,0.0,,,,,,0.0,-102.0,0.0,-102.0,,-102.0,-408.0,-86.10526315789474,5.149294656267371,-93.0,-88.0,-79.0,-1636.0
-0.2565,0.10092943079201427,-0.432,-0.29,-0.082,-3.078,0.709,0.17037898931499743,0.454,0.719,1.042,8.508,0.4375,0.050577498290577144,0.358,0.436,0.536,5.25,,,,,,0.0,,,,,,0.0,,,,,,0.0,-95.66666666666667,4.642796092394707,-102.0,-94.0,-91.0,-1148.0
-0.08662500000000001,0.3439285672563418,-0.6,-0.11399999999999999,0.4,-1.3860000000000001,0.66675,0.3492576949760735,0.134,0.646,1.606,10.668,0.8035,0.27322289435550606,0.312,0.855,1.23,12.856,,,,,,0.0,,,,,,0.0,,,,,,0.0,-94.25,4.493050188902857,-99.0,-95.0,-88.0,-1508.0
0.1342,0.24569566540743043,-0.404,0.119,0.562,2.684,0.24539999999999998,0.33632430777450506,-0.098,0.08299999999999999,0.996,4.9079999999999995,0.9544999999999998,0.2281849030939602,0.52,0.989,1.276,19.089999999999996,,,,,,0.0,,,,,,0.0,-97.0,0.0,-97.0,,-97.0,-388.0,-94.2,4.833218389437829,-100.0,-92.0,-89.0,-1884.0
0.43279999999999996,0.3159774675510898,0.008,0.311,1.074,8.655999999999999,0.6482,0.2532760549282146,0.126,0.726,0.998,12.964,0.6563,0.27511617546047706,0.15,0.716,1.112,13.126,,,,,,0.0,,,,,,0.0,-97.0,0.0,-97.0,,-97.0,-388.0,-88.6,5.351635264103861,-98.0,-87.0,-82.0,-1772.0
0.04983333333333334,0.21835362501125452,-0.302,0.049,0.414,0.5980000000000001,0.20616666666666664,0.44769294412825206,-0.34,-0.006000000000000002,0.944,2.4739999999999998,0.8693333333333332,0.10708356031104349,0.684,0.868,1.084,10.431999999999999,,,,,,0.0,,,,,,0.0,-99.0,0.0,-99.0,,-99.0,-396.0,-90.33333333333333,5.185449728701348,-94.0,-94.0,-83.0,-1084.0
-0.7372,0.19200874980062757,-0.872,-0.826,-0.32,-14.744,0.521,0.20944259356682915,0.338,0.44,1.136,10.42,0.177,0.17770030951014124,0.018,0.107,0.688,3.54,-99.0,0.0,-99.0,,-99.0,-396.0,,,,,,0.0,,,,,,0.0,-84.6,1.4966629547095764,-86.0,-85.0,-82.0,-1692.0
-0.718375,0.1875182907745268,-0.848,-0.824,-0.378,-11.494,0.564125,0.18519377520586375,0.44,0.462,0.92,9.026,0.137125,0.06472622633059956,0.08,0.109,0.27,2.194,,,,,,0.0,,,,,,0.0,,,,,,0.0,-89.0,7.582875444051551,-102.0,-85.5,-83.0,-1424.0
-0.2383,0.07127769637130538,-0.354,-0.265,-0.13,-4.766,0.9078000000000002,0.09071030812427001,0.766,0.899,1.106,18.156000000000002,0.3328,0.03276827734257631,0.254,0.337,0.39,6.656,,,,,,0.0,,,,,,0.0,,,,,,0.0,-88.2,2.7129319932501073,-92.0,-88.0,-84.0,-1764.0
-0.43699999999999994,0.2205470471350727,-0.85,-0.416,-0.058,-8.739999999999998,0.8392999999999999,0.17925989512436963,0.496,0.875,1.19,16.785999999999998,0.33429999999999993,0.16135708847150163,-0.05,0.375,0.604,6.685999999999999,,,,,,0.0,,,,,,0.0,,,,,,0.0,-86.2,3.8157568056677835,-91.0,-86.0,-82.0,-1724.0
-0.3101,0.23279387878550417,-0.806,-0.309,0.078,-6.202,0.7087,0.32441225315946376,0.098,0.891,1.112,14.174,0.339,0.23357268675938975,0.006,0.33699999999999997,0.796,6.78,,,,,,0.0,,,,,,0.0,-102.0,0.0,-102.0,,-102.0,-408.0,-89.4,4.758150901348128,-97.0,-86.0,-85.0,-1788.0
-0.45899999999999996,0.3090032362290078,-0.846,-0.487,0.056,-7.343999999999999,0.841375,0.41189605409010654,0.444,0.723,2.014,13.462,-0.024749999999999994,0.17268739820843906,-0.448,-0.018000000000000002,0.258,-0.3959999999999999,,,,,,0.0,,,,,,0.0,,,,,,0.0,-93.75,2.8613807855648994,-98.0,-93.5,-90.0,-1500.0
-0.493125,0.24610157328834775,-0.894,-0.517,-0.02,-7.89,0.7718750000000001,0.22486714827871143,0.344,0.8049999999999999,1.138,12.350000000000001,0.064,0.3295360374830043,-0.674,0.066,0.566,1.024,,,,,,0.0,,,,,,0.0,,,,,,0.0,-92.5,2.958039891549808,-97.0,-92.0,-89.0,-1480.0
-0.5448999999999999,0.11828182447020337,-0.812,-0.555,-0.304,-10.897999999999998,0.7824,0.14915441662921017,0.454,0.808,1.032,15.648,-0.0215,0.20574243606995615,-0.4,-0.04,0.338,-0.42999999999999994,,,,,,0.0,,,,,,0.0,,,,,,0.0,-93.2,5.564171097297422,-101.0,-92.0,-86.0,-1864.0
-0.6365999999999999,0.06667563273040608,-0.75,-0.638,-0.468,-12.732,0.7041000000000001,0.08867124674887569,0.566,0.685,0.974,14.082,-0.066,0.09282025640990225,-0.232,-0.057999999999999996,0.112,-1.32,,,,,,0.0,,,,,,0.0,,,,,,0.0,-92.6,2.3323807579381204,-94.0,-94.0,-88.0,-1852.0
-0.6421,0.09979674343384158,-0.914,-0.639,-0.444,-12.842,0.6987,0.10236654727009209,0.476,0.722,0.84,13.974,-0.03150000000000001,0.10929569982391805,-0.16,-0.057999999999999996,0.286,-0.6300000000000001,,,,,,0.0,,,,,,0.0,,,,,,0.0,-91.8,3.2496153618543837,-98.0,-90.0,-89.0,-1836.0
-0.5808,0.14552443093858847,-0.81,-0.595,-0.186,-11.616,0.7564,0.15731191944668402,0.528,0.732,1.074,15.128,0.015399999999999997,0.12705919880118874,-0.162,0.032,0.294,0.30799999999999994,,,,,,0.0,,,,,,0.0,,,,,,0.0,-93.8,2.1354156504062622,-97.0,-94.0,-91.0,-1876.0
-0.6798,0.38021251952033347,-1.288,-0.7889999999999999,0.012,-13.596,0.6598999999999999,0.19129712491305248,0.358,0.619,1.064,13.197999999999999,0.294,0.17588746402174318,0.056,0.278,0.664,5.88,,,,,,0.0,,,,,,0.0,,,,,,0.0,-92.2,5.114684741017769,-101.0,-91.0,-86.0,-1844.0
-0.6076,0.21045911717005752,-0.82,-0.674,-0.032,-12.152000000000001,0.6809999999999999,0.08818503274365781,0.472,0.6930000000000001,0.814,13.62,0.0891,0.23608343863981648,-0.658,0.092,0.416,1.782,,,,,,0.0,,,,,,0.0,,,,,,0.0,-85.8,3.487119154832538,-92.0,-86.0,-82.0,-1716.0
-0.6323000000000001,0.15216474624563994,-0.924,-0.651,-0.328,-12.646,0.7448999999999999,0.1267903387486602,0.542,0.708,1.062,14.897999999999998,0.05840000000000002,0.23296489005856655,-0.408,0.11599999999999999,0.46,1.1680000000000004,,,,,,0.0,,,,,,0.0,,,,,,0.0,-87.0,6.260990336999411,-98.0,-83.0,-82.0,-1740.0
-0.6684000000000001,0.07828818557100425,-0.794,-0.675,-0.526,-13.368000000000002,0.6568,0.1642088913548837,0.262,0.715,0.882,13.136000000000001,-0.002000000000000002,0.09230167929133251,-0.148,-0.005,0.152,-0.04000000000000004,,,,,,0.0,,,,,,0.0,,,,,,0.0,-94.4,4.079215610874228,-102.0,-94.0,-90.0,-1888.0
-0.6652499999999999,0.11558519585137189,-0.84,-0.6990000000000001,-0.398,-10.643999999999998,0.666375,0.14381623474072738,0.318,0.675,0.926,10.662,0.160875,0.17896783055901416,-0.176,0.155,0.388,2.574,,,,,,0.0,,,,,,0.0,,,,,,0.0,-90.0,4.47213595499958,-96.0,-90.0,-84.0,-1440.0
-0.766,0.24551171051499762,-1.348,-0.733,-0.482,-15.32,0.6933,0.2948743969896335,0.166,0.6930000000000001,1.706,13.866000000000001,0.0509,0.15161197182280825,-0.242,0.076,0.312,1.018,,,,,,0.0,,,,,,0.0,,,,,,0.0,-90.0,5.019960159204453,-99.0,-87.0,-86.0,-1800.0
-0.4235,0.22661917394607192,-0.976,-0.33999999999999997,-0.148,-6.776,0.552,0.2014646370954466,0.144,0.553,0.846,8.832,0.47450000000000003,0.30384988069768926,-0.052,0.528,0.972,7.5920000000000005,,,,,,0.0,,,,,,0.0,,,,,,0.0,-90.75,6.299801584177076,-100.0,-89.5,-84.0,-1452.0
-0.21730000000000005,0.0559509606709304,-0.34,-0.209,-0.106,-4.346000000000001,0.8525,0.07119234509411809,0.688,0.86,0.962,17.05,0.5157999999999999,0.04689093729069616,0.454,0.502,0.6,10.315999999999999,,,,,,0.0,,,,,,0.0,,,,,,0.0,-95.6,1.624807680927192,-98.0,-95.0,-94.0,-1912.0
-0.258,0.09772614798507102,-0.456,-0.248,-0.136,-5.16,0.8356999999999999,0.040641235217448786,0.75,0.847,0.908,16.714,0.4795999999999999,0.06732191322296181,0.37,0.491,0.608,9.591999999999999,,,,,,0.0,,,,,,0.0,,,,,,0.0,-92.0,1.7888543819998317,-95.0,-91.0,-90.0,-1840.0
-0.26787500000000003,0.03866179477210028,-0.34,-0.264,-0.208,-4.2860000000000005,0.835875,0.04300272520434023,0.786,0.826,0.944,13.374,0.486625,0.06461702078400086,0.4,0.46,0.614,7.786,,,,,,0.0,,,,,,0.0,,,,,,0.0,-94.25,1.299038105676658,-96.0,-94.0,-93.0,-1508.0
-0.30874999999999997,0.16252365212485226,-0.598,-0.33199999999999996,-0.104,-2.4699999999999998,0.72325,0.18129240883169934,0.472,0.6719999999999999,1.11,5.786,0.58825,0.0627888326058066,0.486,0.605,0.654,4.706,,,,,,0.0,,,,,,0.0,,,,,,0.0,-96.5,2.5,-99.0,-96.5,-94.0,-772.0
-0.8167,0.29749842016387246,-1.416,-0.883,-0.19,-16.334,0.4328,0.2207961956193992,-0.208,0.42,0.796,8.656,0.33470000000000005,0.10081324317766986,0.176,0.315,0.534,6.694000000000001,,,,,,0.0,,,,,,0.0,,,,,,0.0,-84.8,6.794115100585211,-98.0,-82.0,-79.0,-1696.0
-0.8595999999999998,0.28685787421648373,-1.314,-0.906,-0.264,-17.191999999999997,0.3478,0.28455361533461493,-0.222,0.346,0.944,6.9559999999999995,0.2806,0.1548303587801824,0.052,0.259,0.64,5.612,,,,,,0.0,,,,,,0.0,,,,,,0.0,-86.4,2.8705400188814645,-90.0,-86.0,-82.0,-1728.0
-0.7549999999999999,0.21142295681090703,-1.152,-0.77,-0.302,-9.059999999999999,0.3981666666666666,0.26610581646321746,-0.234,0.402,0.87,4.778,0.3365,0.12385778134618752,0.092,0.348,0.598,4.038,,,,,,0.0,,,,,,0.0,,,,,,0.0,-82.33333333333333,1.247219128924647,-84.0,-82.0,-81.0,-988.0
-0.7020000000000001,0.35997569362388904,-1.122,-0.844,-0.218,-11.232000000000001,0.47350000000000003,0.25710746780286253,0.146,0.391,1.164,7.5760000000000005,0.34075,0.1447236590886231,0.098,0.303,0.664,5.452,,,,,,0.0,,,,,,0.0,,,,,,0.0,-86.25,4.322904116447646,-91.0,-86.5,-81.0,-1380.0
-0.065,0.20054475809654063,-0.334,-0.10300000000000001,0.28,-1.3,0.7550000000000001,0.2170387062254104,0.432,0.757,1.186,15.100000000000001,0.7233,0.17774394504455,0.388,0.657,1.068,14.466000000000001,,,,,,0.0,,,,,,0.0,,,,,,0.0,-93.8,4.1182520563948,-98.0,-95.0,-86.0,-1876.0
-0.007666666666666676,0.2575433081164323,-0.478,-0.0019999999999999983,0.438,-0.09200000000000011,0.619,0.19428244044860737,0.242,0.606,1.01,7.428,0.509,0.16661032380978075,0.166,0.522,0.77,6.108,,,,,,0.0,,,,,,0.0,,,,,,0.0,-95.0,2.8284271247461903,-99.0,-93.0,-93.0,-1140.0
0.0502,0.18342617043377424,-0.418,0.064,0.352,1.004,0.9804,0.1880984848423825,0.6,0.97,1.43,19.608,0.2083,0.1655068276537255,-0.122,0.195,0.544,4.166,,,,,,0.0,,,,,,0.0,,,,,,0.0,-86.4,2.4166091947189146,-89.0,-87.0,-82.0,-1728.0
0.1722,0.11968943144655672,-0.144,0.17099999999999999,0.376,3.444,0.9103000000000001,0.1353946453889518,0.574,0.968,1.074,18.206000000000003,-0.054700000000000006,0.2206148453753736,-0.45,-0.012,0.464,-1.094,,,,,,0.0,,,,,,0.0,,,,,,0.0,-89.8,2.5612496949731396,-94.0,-90.0,-86.0,-1796.0
-0.7150000000000001,0.3222615397468336,-1.268,-0.749,-0.266,-11.440000000000001,0.561875,0.6987991373599427,0.162,0.421,3.23,8.99,-0.138,0.49847216572242026,-1.808,-0.017,0.268,-2.208,,,,,,0.0,,,,,,0.0,,,,,,0.0,-87.5,2.598076211353316,-90.0,-88.0,-84.0,-1400.0
-0.8164999999999999,0.06554044552793337,-0.946,-0.799,-0.708,-16.33,0.4979,0.06222692343351068,0.35,0.503,0.614,9.958,0.11190000000000003,0.0814849065778442,-0.112,0.112,0.242,2.2380000000000004,-101.0,0.0,-101.0,,-101.0,-404.0,,,,,,0.0,,,,,,0.0,-89.0,1.7320508075688772,-90.0,,-86.0,-1424.0
-0.8221,0.02175752743305175,-0.858,-0.818,-0.776,-16.442,0.4633000000000001,0.024431741648928754,0.414,0.474,0.508,9.266000000000002,0.1258,0.015360989551457942,0.098,0.125,0.162,2.516,,,,,,0.0,,,,,,0.0,,,,,,0.0,-87.4,3.8262252939417984,-93.0,-87.0,-82.0,-1748.0
-0.7827,0.06670614664331916,-0.912,-0.78,-0.638,-15.654,0.4615,0.05399212905600223,0.296,0.478,0.536,9.23,0.1433,0.03141512374637413,0.078,0.151,0.182,2.866,,,,,,0.0,,,,,,0.0,,,,,,0.0,-91.2,3.7629775444453557,-96.0,-91.0,-85.0,-1824.0
-0.8953,0.1891034373035033,-1.192,-0.935,-0.506,-17.906,0.31710000000000005,0.07314225864710497,0.19,0.315,0.44,6.3420000000000005,-0.1799,0.08061383255992732,-0.252,-0.217,0.02,-3.598,,,,,,0.0,,,,,,0.0,,,,,,0.0,-88.6,3.072458299147443,-94.0,-87.0,-86.0,-1772.0
-0.8251000000000002,0.046101952236320756,-0.882,-0.833,-0.704,-16.502000000000002,0.3344999999999999,0.019213276659643445,0.28,0.335,0.368,6.689999999999999,-0.2273,0.04645976754139004,-0.292,-0.243,-0.146,-4.546,,,,,,0.0,,,,,,0.0,,,,,,0.0,-86.6,0.7999999999999999,-88.0,-86.0,-86.0,-1732.0
-0.8314999999999999,0.010136567466356643,-0.848,-0.831,-0.81,-16.63,0.312,0.011661903789690613,0.288,0.311,0.332,6.24,-0.2338,0.01444852933692561,-0.256,-0.236,-0.208,-4.676,,,,,,0.0,,,,,,0.0,,,,,,0.0,-84.6,1.2,-86.0,-84.0,-83.0,-1692.0
-0.8422000000000001,0.0343970929004182,-0.984,-0.832,-0.816,-16.844,0.3206,0.01524598307751914,0.302,0.318,0.37,6.412,-0.2345,0.020217566619155726,-0.306,-0.232,-0.208,-4.6899999999999995,,,,,,0.0,,,,,,0.0,,,,,,0.0,-84.0,0.8944271909999159,-85.0,-84.0,-83.0,-1680.0
-0.8314999999999999,0.16434339049684965,-1.056,-0.817,-0.564,-16.63,0.336,0.10924651024174639,0.158,0.313,0.676,6.720000000000001,-0.0919,0.1396044053746156,-0.32,-0.137,0.16,-1.8379999999999999,,,,,,0.0,,,,,,0.0,,,,,,0.0,-85.2,2.039607805437114,-88.0,-86.0,-82.0,-1704.0
-0.8056999999999999,0.028539621581233333,-0.882,-0.8,-0.766,-16.113999999999997,0.5096999999999999,0.05676715599710804,0.384,0.515,0.6,10.193999999999999,0.16730000000000003,0.04423697548431629,0.108,0.158,0.27,3.3460000000000005,,,,,,0.0,,,,,,0.0,,,,,,0.0,-90.6,1.3564659966250536,-93.0,-90.0,-89.0,-1812.0
-0.8238,0.04266567707185718,-0.888,-0.827,-0.744,-16.476,0.47289999999999993,0.04108272142884402,0.398,0.47,0.568,9.457999999999998,0.1177,0.04411020290136966,0.052,0.105,0.224,2.354,-97.0,0.0,-97.0,,-97.0,-388.0,,,,,,0.0,-101.0,0.0,-101.0,,-101.0,-404.0,-87.0,1.6733200530681511,-89.0,-86.0,-85.0,-1740.0
-0.8058749999999999,0.02527319479211124,-0.848,-0.818,-0.758,-12.893999999999998,0.492,0.03359315406448166,0.456,0.478,0.556,7.872,0.1755,0.012658988901172162,0.158,0.175,0.196,2.808,,,,,,0.0,,,,,,0.0,,,,,,0.0,-87.5,3.5,-93.0,-86.5,-84.0,-1400.0
-0.8378,0.008411896337925244,-0.856,-0.834,-0.824,-16.756,0.4351,0.008519976525789265,0.422,0.433,0.454,8.702,0.1546,0.009340235543068494,0.134,0.158,0.168,3.0919999999999996,,,,,,0.0,,,,,,0.0,,,,,,0.0,-89.8,3.249615361854384,-94.0,-90.0,-84.0,-1796.0
-0.737375,0.0954403445876009,-0.842,-0.77,-0.51,-11.798,0.438375,0.03318296814632471,0.384,0.437,0.504,7.014,0.14325000000000002,0.01826027108232515,0.102,0.146,0.168,2.2920000000000003,-103.0,0.0,-103.0,,-103.0,-412.0,,,,,,0.0,,,,,,0.0,-88.33333333333333,4.189935029992178,-94.0,,-84.0,-1060.0
-0.9188749999999999,0.10619314655381487,-1.058,-0.929,-0.61,-14.701999999999998,0.344125,0.14333957714113713,-0.056,0.361,0.518,5.506,-0.070875,0.13291156599408493,-0.36,-0.075,0.112,-1.134,,,,,,0.0,,,,,,0.0,,,,,,0.0,-95.75,3.031088913245535,-101.0,-94.0,-94.0,-1532.0
-0.776,0.025059928172283325,-0.834,-0.767,-0.734,-15.52,0.5154,0.03964895963326152,0.418,0.528,0.562,10.308,0.0010999999999999981,0.038296083350650885,-0.096,0.013000000000000001,0.06,0.021999999999999964,-99.0,0.0,-99.0,,-99.0,-396.0,,,,,,0.0,,,,,,0.0,-96.5,1.6583123951777,-98.0,,-94.0,-1544.0
-0.7532,0.032633724886993835,-0.82,-0.738,-0.712,-11.298,0.5745333333333333,0.0390177167735661,0.504,0.572,0.656,8.618,-0.015333333333333332,0.03575969177098085,-0.068,-0.024,0.068,-0.22999999999999998,,,,,,0.0,,,,,,0.0,,,,,,0.0,-97.46666666666667,1.7838784213679537,-99.0,-98.0,-94.0,-1462.0
-0.776375,0.012633660395942273,-0.802,-0.776,-0.752,-12.422,0.52575,0.015343972758057165,0.5,0.53,0.544,8.412,-0.0465,0.02110094784600919,-0.082,-0.049,-0.014,-0.744,,,,,,0.0,,,,,,0.0,,,,,,0.0,-94.0,0.0,-94.0,-94.0,-94.0,-1504.0
-0.8103999999999999,0.031582273509042996,-0.894,-0.8,-0.762,-16.208,0.5033,0.012763620176109923,0.486,0.501,0.542,10.065999999999999,-0.027500000000000004,0.044003977092985584,-0.13,-0.024,0.078,-0.55,,,,,,0.0,,,,,,0.0,,,,,,0.0,-94.8,3.1240998703626617,-102.0,-93.0,-93.0,-1896.0
-0.8296250000000001,0.24569006771743948,-1.242,-0.7829999999999999,-0.468,-13.274000000000001,0.282375,0.16634785653864015,0.006,0.319,0.668,4.518,-0.143875,0.1643539910528491,-0.458,-0.088,0.08,-2.302,-98.0,0.0,-98.0,,-98.0,-294.0,,,,,,0.0,,,,,,0.0,-92.0625,5.355706652721002,-102.0,-89.5,-88.0,-1473.0
-0.8642222222222222,0.036532414154427546,-0.922,-0.862,-0.802,-7.778,0.43066666666666664,0.0246576560118759,0.402,0.424,0.476,3.876,-0.16422222222222224,0.03882089293660132,-0.228,-0.16,-0.106,-1.4780000000000002,-102.0,2.0,-104.0,-101.0,-98.0,-918.0,,,,,,0.0,,,,,,0.0,-101.0,0.0,-101.0,,-101.0,-101.0
,,,,,,,,,,,,,,,,,,,,,,,,,,,,,,,,,,,,,,,,,
,,,,,,,,,,,,,,,,,,,,,,,,,,,,,,,,,,,,,,,,,
-0.8283749999999999,0.008781194394841749,-0.848,-0.826,-0.816,-13.253999999999998,0.46387500000000004,0.0074989582609853115,0.45,0.463,0.48,7.422000000000001,0.07899999999999999,0.008573214099741124,0.062,0.08,0.096,1.2639999999999998,,,,,,0.0,,,,,,0.0,,,,,,0.0,-86.75,0.4330127018922193,-87.0,-87.0,-86.0,-1388.0
-0.815,0.03469870314579493,-0.848,-0.826,-0.72,-13.04,0.438375,0.015925117738968216,0.398,0.439,0.462,7.014,0.070875,0.019924466743177844,0.03,0.08,0.096,1.134,,,,,,0.0,,,,,,0.0,,,,,,0.0,-93.25,5.629165124598851,-103.0,-90.0,-90.0,-1492.0
-0.805125,0.11862118012817104,-0.976,-0.8260000000000001,-0.56,-12.882,0.1735,0.15910923920376213,-0.066,0.13899999999999998,0.39,2.776,-0.126,0.11839130035606502,-0.428,-0.125,0.12,-2.016,,,,,,0.0,,,,,,0.0,,,,,,0.0,-93.25,6.219927652312364,-102.0,-92.5,-86.0,-1492.0
-0.33285714285714285,0.062306680612752845,-0.416,-0.346,-0.232,-2.33,0.9208571428571428,0.03610867949252474,0.88,0.924,0.976,6.446,-0.09514285714285713,0.03486885049286651,-0.144,-0.098,-0.032,-0.6659999999999999,,,,,,0.0,,,,,,0.0,,,,,,0.0,-102.0,0.0,-102.0,-102.0,-102.0,-714.0
-0.22519999999999998,0.035159067109353175,-0.254,-0.24,-0.158,-1.126,0.9128000000000001,0.026969612529660104,0.88,0.902,0.956,4.564,-0.027999999999999997,0.009797958971132711,-0.046,-0.026,-0.016,-0.13999999999999999,,,,,,0.0,,,,,,0.0,,,,,,0.0,-99.6,1.2,-102.0,-99.0,-99.0,-498.0
,,,,,,,,,,,,,,,,,,,,,,,,,,,,,,,,,,,,,,,,,
,,,,,,,,,,,,,,,,,,,,,,,,,,,,,,,,,,,,,,,,,
-0.6129090909090908,0.18082309513869402,-0.976,-0.58,-0.338,-6.741999999999999,0.4103636363636365,0.3019582369459461,-0.132,0.418,0.876,4.514000000000001,-0.35272727272727267,0.2002385354380624,-0.626,-0.25,-0.064,-3.8799999999999994,,,,,,0.0,,,,,,0.0,,,,,,0.0,-96.81818181818181,2.16661368869327,-99.0,-98.0,-94.0,-1065.0
-0.4035000000000001,0.26530953620252706,-0.856,-0.449,0.204,-8.070000000000002,0.5873,0.27970432603018497,-0.04,0.641,0.984,11.746,-0.44769999999999993,0.23669666241837883,-0.97,-0.434,0.118,-8.953999999999999,,,,,,0.0,,,,,,0.0,,,,,,0.0,-93.45,5.50885650566431,-103.0,-92.0,-87.0,-1869.0
-0.0347,0.03636633058200951,-0.114,-0.023,0.016,-0.6940000000000001,0.9423999999999998,0.053898422982495524,0.87,0.9390000000000001,1.12,18.847999999999995,-0.09880000000000001,0.04099951219222005,-0.19,-0.089,-0.032,-1.9760000000000002,,,,,,0.0,,,,,,0.0,,,,,,0.0,-87.9,0.6244997998398398,-90.0,-88.0,-87.0,-1758.0
-0.0127,0.012965724044572288,-0.05,-0.008,0.002,-0.254,0.9424999999999999,0.015229904792873766,0.904,0.941,0.974,18.849999999999998,-0.0908,0.03734380805434818,-0.124,-0.104,-0.002,-1.816,,,,,,0.0,,,,,,0.0,,,,,,0.0,-88.05,0.5894913061275798,-89.0,-88.0,-87.0,-1761.0
-0.0128,0.004995998398718718,-0.02,-0.016,-0.002,-0.256,0.9488,0.010205880657738439,0.926,0.948,0.966,18.976,-0.05320000000000001,0.009303762679690407,-0.066,-0.05,-0.034,-1.0640000000000003,,,,,,0.0,,,,,,0.0,,,,,,0.0,-87.75,0.4330127018922193,-88.0,-88.0,-87.0,-1755.0
0.018823529411764704,0.16294648536690076,-0.344,0.014,0.368,0.31999999999999995,0.9178823529411764,0.1294158288131898,0.506,0.946,1.116,15.604,-0.15917647058823525,0.0870674081618021,-0.37,-0.126,-0.068,-2.7059999999999995,,,,,,0.0,,,,,,0.0,,,,,,0.0,-93.41176470588235,2.402420924313193,-97.0,-92.0,-88.0,-1588.0
0.5025454545454546,0.15274956547259347,0.162,0.586,0.688,5.5280000000000005,0.7618181818181818,0.1283899020256218,0.646,0.696,1.038,8.38,-0.1209090909090909,0.31281985944439317,-0.532,-0.256,0.498,-1.3299999999999998,,,,,,0.0,,,,,,0.0,,,,,,0.0,-95.54545454545455,5.263314482229138,-102.0,-94.0,-89.0,-1051.0
0.2116,0.5333192664811576,-0.512,0.28,0.896,1.058,0.5152,0.38132317002773386,-0.08,0.662,0.902,2.576,0.47359999999999997,0.2836262329193123,0.142,0.472,0.934,2.368,,,,,,0.0,,,,,,0.0,,,,,,0.0,-83.4,2.8,-89.0,-82.0,-82.0,-417.0
,,,,,,,,,,,,,,,,,,,,,,,,,,,,,,,,,,,,,,,,,
,,,,,,,,,,,,,,,,,,,,,,,,,,,,,,,,,,,,,,,,,
,,,,,,,,,,,,,,,,,,,,,,,,,,,,,,,,,,,,,,,,,
0.2581333333333334,0.13000608532765773,-0.09,0.268,0.4,3.8720000000000003,0.9245333333333332,0.13891861726285007,0.686,0.944,1.19,13.867999999999999,0.18880000000000002,0.19540426470951616,-0.116,0.224,0.54,2.8320000000000003,,,,,,0.0,,,,,,0.0,,,,,,0.0,-96.93333333333334,3.2957885584822058,-102.0,-97.0,-94.0,-1454.0
0.21687499999999998,0.34293072824551607,-0.296,0.29800000000000004,0.624,3.4699999999999998,0.878375,0.14105356916788742,0.478,0.897,1.062,14.054,0.050875000000000004,0.20081081737545914,-0.472,0.05,0.454,0.8140000000000001,,,,,,0.0,,,,,,0.0,,,,,,0.0,-90.75,2.6339134382131846,-94.0,-91.0,-87.0,-1452.0
0.41109999999999997,0.12116513524937773,0.174,0.404,0.694,8.222,0.8215999999999999,0.17392826107335174,0.504,0.896,1.088,16.432,0.20270000000000002,0.13172437132133144,-0.008,0.184,0.412,4.054,,,,,,0.0,,,,,,0.0,,,,,,0.0,-91.45,2.4591665254715878,-96.0,-90.0,-89.0,-1829.0
0.2771,0.008636550237218552,0.254,0.276,0.296,5.542,0.9239,0.018573906428104983,0.902,0.92,0.984,18.478,0.04780000000000001,0.011779643458101778,0.022,0.048,0.07,0.9560000000000002,,,,,,0.0,,,,,,0.0,,,,,,0.0,-92.2,6.43117407632541,-105.0,-89.0,-88.0,-1844.0
0.2723,0.005109794516416487,0.258,0.272,0.282,5.446,0.9226000000000001,0.00824863625092052,0.91,0.925,0.936,18.452,0.040500000000000015,0.008218880702382777,0.03,0.039,0.06,0.8100000000000003,,,,,,0.0,,,,,,0.0,,,,,,0.0,-88.85,1.1521718621802912,-91.0,-88.0,-88.0,-1777.0
0.28700000000000003,0.02125558750070201,0.262,0.28,0.354,5.740000000000001,0.9218,0.014831048513169926,0.886,0.924,0.952,18.436,0.0342,0.013082813153141033,0.016,0.031,0.076,0.684,,,,,,0.0,,,,,,0.0,,,,,,0.0,-88.55,0.4974937185533099,-89.0,-89.0,-88.0,-1771.0
0.30887499999999996,0.0882042197119843,0.076,0.336,0.408,4.941999999999999,0.888125,0.07382570267190149,0.78,0.883,1.036,14.21,-0.10749999999999998,0.11186263898192282,-0.306,-0.086,0.062,-1.7199999999999998,,,,,,0.0,,,,,,0.0,,,,,,0.0,-90.9375,3.0714155938264036,-94.0,-92.0,-86.0,-1455.0
-0.599875,0.19711604291634915,-0.9,-0.625,-0.094,-9.598,0.5583750000000001,0.23117657618149812,-0.058,0.543,0.96,8.934000000000001,0.029249999999999998,0.5482234375690263,-0.522,-0.198,1.102,0.46799999999999997,,,,,,0.0,,,,,,0.0,,,,,,0.0,-95.25,4.235268586524354,-101.0,-93.5,-90.0,-1524.0
-0.4257000000000001,0.32046733062825605,-1.208,-0.41500000000000004,0.114,-8.514000000000001,0.6887,0.16909911294859,0.384,0.663,1.07,13.774,0.5132,0.33493903922952906,0.048,0.435,1.176,10.264,,,,,,0.0,,,,,,0.0,,,,,,0.0,-88.85,5.534211777660844,-98.0,-87.0,-82.0,-1777.0
-0.1687058823529412,0.3428187249855119,-0.612,-0.05,0.306,-2.8680000000000003,0.8045882352941176,0.3323483393747005,0.37,0.816,1.438,13.677999999999999,0.5155294117647058,0.28930629355043297,-0.078,0.526,0.888,8.764,,,,,,0.0,,,,,,0.0,,,,,,0.0,-95.11764705882354,2.5177570069450232,-98.0,-96.0,-91.0,-1617.0
0.19824999999999998,0.10467300272754193,-0.016,0.16999999999999998,0.39,3.1719999999999997,0.973375,0.2109498977838103,0.738,0.94,1.622,15.574,0.22825,0.1530929047996673,-0.002,0.206,0.556,3.652,,,,,,0.0,,,,,,0.0,,,,,,0.0,-100.0,1.224744871391589,-101.0,-100.5,-98.0,-1600.0
0.09680000000000001,0.4563517941237878,-1.224,0.286,0.574,1.4520000000000002,0.7353333333333333,0.37600472810266033,0.014,0.864,1.478,11.03,0.38453333333333334,0.2236860498307592,-0.024,0.332,0.774,5.768,,,,,,0.0,,,,,,0.0,-102.0,0.0,-102.0,,-102.0,-408.0,-95.33333333333333,7.142984125855398,-105.0,-98.0,-87.0,-1430.0
-0.7172499999999999,0.12801928565649787,-0.926,-0.702,-0.468,-5.7379999999999995,0.07700000000000001,0.25016994223927064,-0.224,0.048,0.652,0.6160000000000001,-0.3595,0.3648420891289819,-0.72,-0.46499999999999997,0.51,-2.876,,,,,,0.0,,,,,,0.0,,,,,,0.0,-92.5,5.634713834792322,-98.0,-94.0,-86.0,-740.0
-0.8535,0.19586028183376025,-1.194,-0.825,-0.432,-13.656,0.34924999999999995,0.16047254438065098,0.092,0.354,0.59,5.587999999999999,-0.012375000000000002,0.13196253019323326,-0.258,0.002,0.2,-0.19800000000000004,,,,,,0.0,,,,,,0.0,,,,,,0.0,-87.3125,2.0530084632071053,-90.0,-86.0,-85.0,-1397.0
-0.8203999999999999,0.08544612337607833,-0.98,-0.82,-0.676,-16.407999999999998,0.4659999999999999,0.07835304716474017,0.352,0.455,0.738,9.319999999999999,0.0891,0.06869490519681935,-0.056,0.092,0.212,1.782,,,,,,0.0,,,,,,0.0,,,,,,0.0,-87.15,1.388344337691482,-90.0,-87.0,-86.0,-1743.0
-0.8304,0.0114647285183732,-0.848,-0.831,-0.808,-16.608,0.458,0.019738287666360523,0.432,0.454,0.508,9.16,0.079,0.020391174561559713,0.056,0.066,0.118,1.58,,,,,,0.0,,,,,,0.0,,,,,,0.0,-90.0,0.0,-90.0,-90.0,-90.0,-1800.0
-0.8267000000000001,0.007383088784512895,-0.84,-0.826,-0.814,-16.534000000000002,0.45830000000000004,0.010941206514822758,0.438,0.458,0.476,9.166,0.06570000000000001,0.00970103087305674,0.04,0.063,0.082,1.3140000000000003,,,,,,0.0,,,,,,0.0,,,,,,0.0,-86.4,0.9165151389911678,-90.0,-86.0,-86.0,-1728.0
-0.8295294117647058,0.010324828140195235,-0.846,-0.832,-0.81,-14.102,0.45235294117647057,0.013689588901448333,0.43,0.454,0.472,7.6899999999999995,0.06505882352941177,0.007263693666086181,0.054,0.066,0.078,1.106,,,,,,0.0,,,,,,0.0,,,,,,0.0,-86.0,0.0,-86.0,-86.0,-86.0,-1462.0
-0.8358947368421054,0.005748178080621499,-0.848,-0.834,-0.826,-15.882000000000001,0.44157894736842107,0.0060725074113077765,0.432,0.44,0.452,8.39,0.06284210526315791,0.007686373163591024,0.054,0.062,0.08,1.1940000000000002,,,,,,0.0,,,,,,0.0,,,,,,0.0,-91.6842105263158,5.956443937176887,-103.0,-90.0,-87.0,-1742.0
-0.8427999999999999,0.012039933554633939,-0.866,-0.84,-0.826,-16.855999999999998,0.44109999999999994,0.015420440979427274,0.418,0.438,0.48,8.822,0.08399999999999999,0.03674234614174767,0.054,0.07100000000000001,0.188,1.68,,,,,,0.0,,,,,,0.0,,,,,,0.0,-89.4,1.42828568570857,-90.0,-90.0,-86.0,-1788.0
-0.8621000000000001,0.25545447735359816,-1.25,-0.885,-0.446,-17.242,0.2974,0.08130953203653309,0.142,0.302,0.462,5.948,-0.161,0.16939008235431025,-0.384,-0.193,0.086,-3.22,,,,,,0.0,,,,,,0.0,,,,,,0.0,-91.6,3.2310988842807022,-97.0,-92.0,-86.0,-1832.0
-0.8249000000000001,0.03972140480899435,-0.88,-0.843,-0.74,-16.498,0.31239999999999996,0.04060344812943846,0.254,0.309,0.37,6.247999999999999,-0.2151,0.05987144561475028,-0.328,-0.2,-0.128,-4.3020000000000005,,,,,,0.0,,,,,,0.0,,,,,,0.0,-95.3,3.6207733980463344,-101.0,-93.0,-90.0,-1906.0
-0.8402499999999999,0.01702755120385784,-0.874,-0.84,-0.814,-13.443999999999999,0.260625,0.009479418494823411,0.238,0.262,0.272,4.17,-0.2585,0.021029740844813096,-0.292,-0.264,-0.21,-4.136,,,,,,0.0,,,,,,0.0,,,,,,0.0,-96.8125,4.216318743880732,-104.0,-95.0,-92.0,-1549.0
-0.8481666666666667,0.012581953566738191,-0.866,-0.848,-0.826,-10.178,0.257,0.011986103064243478,0.24,0.253,0.278,3.084,-0.28049999999999997,0.011376144631054335,-0.296,-0.281,-0.26,-3.3659999999999997,,,,,,0.0,,,,,,0.0,,,,,,0.0,-95.66666666666667,1.9720265943665387,-99.0,-95.0,-94.0,-1148.0
-0.8975000000000002,0.08657915453502651,-1.122,-0.884,-0.782,-17.950000000000003,0.2568000000000001,0.045783839943805506,0.166,0.251,0.332,5.136000000000002,-0.3342,0.07646410922779392,-0.51,-0.308,-0.242,-6.684,,,,,,0.0,,,,,,0.0,,,,,,0.0,-92.05,3.1697791721190924,-99.0,-92.0,-86.0,-1841.0
-0.7872,0.14028741925062274,-1.248,-0.752,-0.602,-15.744,0.37560000000000004,0.1633702543304625,0.16,0.321,0.696,7.5120000000000005,0.0733,0.1907210266331429,-0.098,0.003,0.678,1.4660000000000002,,,,,,0.0,,,,,,0.0,,,,,,0.0,-86.5,2.5199206336708304,-90.0,-85.0,-84.0,-1730.0
-0.8278000000000001,0.12649885374974748,-1.186,-0.833,-0.6,-16.556,0.4606,0.057358870281762,0.384,0.45,0.638,9.212,0.09030000000000002,0.053288929431918604,0.006,0.08399999999999999,0.252,1.8060000000000005,,,,,,0.0,,,,,,0.0,,,,,,0.0,-88.65,1.4585952145814822,-91.0,-89.0,-84.0,-1773.0
-0.8074000000000001,0.016162920528171854,-0.836,-0.808,-0.77,-16.148000000000003,0.48710000000000003,0.03908183721372373,0.398,0.497,0.546,9.742,0.1049,0.029123701687800607,0.05,0.103,0.162,2.098,,,,,,0.0,,,,,,0.0,,,,,,0.0,-88.25,2.1418449990603894,-91.0,-87.0,-86.0,-1765.0
-0.8141052631578948,0.011153921834904894,-0.832,-0.816,-0.794,-15.468,0.4814736842105263,0.011254792761788342,0.462,0.48,0.504,9.148,0.08936842105263158,0.010897660426443974,0.07,0.088,0.11,1.6980000000000002,,,,,,0.0,,,,,,0.0,,,,,,0.0,-87.15789473684211,5.640671459607931,-98.0,-84.0,-83.0,-1656.0
-0.7739000000000001,0.11372330455979549,-0.954,-0.786,-0.482,-15.478000000000003,0.39890000000000003,0.14764751945088683,-0.046,0.451,0.552,7.978000000000001,0.0346,0.11070700068198036,-0.144,-0.008,0.384,0.692,,,,,,0.0,,,,,,0.0,-100.0,0.0,-100.0,,-100.0,-200.0,-87.2,2.993325909419153,-91.0,-88.0,-83.0,-1744.0
-0.9503999999999999,0.20592386942751442,-1.514,-0.917,-0.608,-19.008,0.3417,0.16903050020632374,-0.03,0.299,0.67,6.8340000000000005,-0.1461,0.1378339218044673,-0.426,-0.125,0.136,-2.922,-97.8,5.075431016179808,-104.0,,-93.0,-978.0,,,,,,0.0,-96.25,2.1065374432940898,-100.0,,-94.0,-1540.0,-93.57142857142857,3.2007652146297256,-98.0,,-90.0,-1310.0
-0.6702857142857143,0.07214214992581221,-0.866,-0.634,-0.61,-9.384,0.6215714285714286,0.08609024690547065,0.386,0.662,0.7,8.702,-0.10314285714285713,0.05816584312225216,-0.192,-0.121,0.006,-1.444,-93.0,0.0,-93.0,,-93.0,-186.0,,,,,,0.0,-96.85714285714286,1.2453996981544782,-98.0,-97.0,-94.0,-1356.0,-94.33333333333333,1.247219128924647,-96.0,,-93.0,-1132.0
-0.7074,0.029570931672843845,-0.744,-0.706,-0.66,-7.074,0.5913999999999999,0.028043537579984432,0.546,0.591,0.632,5.914,-0.12280000000000002,0.017825823964125753,-0.164,-0.11699999999999999,-0.104,-1.2280000000000002,,,,,,0.0,,,,,,0.0,,,,,,0.0,-96.4,1.2,-98.0,-97.0,-95.0,-964.0
-0.78775,0.029136532051704436,-0.83,-0.796,-0.736,-12.604,0.48512500000000003,0.03656479693639772,0.44,0.479,0.568,7.7620000000000005,-0.099875,0.012519360007604221,-0.128,-0.1,-0.08,-1.598,,,,,,0.0,,,,,,0.0,-96.0,0.0,-96.0,,-96.0,-576.0,-95.0,1.9364916731037085,-98.0,-94.0,-92.0,-1520.0
-0.9289999999999999,0.21826818366404208,-1.368,-0.916,-0.606,-18.58,0.3126,0.15841224700129722,0.002,0.35,0.568,6.252,-0.16549999999999998,0.14267007394685124,-0.516,-0.126,0.024,-3.3099999999999996,-98.5,5.5,-104.0,,-93.0,-788.0,,,,,,0.0,-95.2,0.9797958971132713,-96.0,,-94.0,-952.0,-90.3,1.7916472867168916,-93.0,-90.0,-88.0,-1806.0
-0.7732,0.13886885900013726,-1.08,-0.788,-0.504,-15.464,0.5119000000000001,0.09400952079443871,0.336,0.503,0.674,10.238000000000003,-0.033800000000000004,0.11645411113395697,-0.2,-0.013999999999999999,0.176,-0.676,-104.0,0.0,-104.0,,-104.0,-416.0,,,,,,0.0,-102.0,0.0,-102.0,,-102.0,-408.0,-91.7,4.473253849269008,-98.0,-91.0,-86.0,-1834.0
-0.8403,0.09085653526301783,-1.118,-0.829,-0.728,-16.806,0.4096,0.06581063743803124,0.27,0.41000000000000003,0.496,8.192,0.1244,0.0790356881414972,-0.002,0.107,0.272,2.488,,,,,,0.0,,,,,,0.0,,,,,,0.0,-86.7,4.561797891182818,-98.0,-87.0,-82.0,-1734.0
-0.8552000000000002,0.02955943165894772,-0.904,-0.863,-0.776,-17.104000000000003,0.4304,0.07696388763569574,0.264,0.438,0.542,8.608,0.13710000000000003,0.049232001787455286,0.06,0.135,0.23,2.7420000000000004,,,,,,0.0,,,,,,0.0,,,,,,0.0,-87.6,2.6153393661244038,-91.0,-89.0,-84.0,-1752.0
-0.9109999999999999,0.09584049248621379,-1.234,-0.896,-0.784,-18.22,0.19829999999999998,0.27729715108525727,-0.248,0.26,0.77,3.9659999999999993,0.1133,0.11202370284899531,-0.248,0.147,0.302,2.266,,,,,,0.0,,,,,,0.0,,,,,,0.0,-85.5,2.5,-91.0,-84.5,-83.0,-1710.0
-0.882,0.049142649501222456,-0.938,-0.89,-0.786,-7.056,0.2515,0.1347618269392338,-0.02,0.29,0.392,2.012,0.15025,0.09045682671860648,-0.002,0.16799999999999998,0.27,1.202,,,,,,0.0,,,,,,0.0,,,,,,0.0,-88.75,2.7726341266023544,-91.0,-90.0,-84.0,-710.0
-0.7991999999999999,0.2936735602671783,-1.778,-0.744,-0.286,-15.983999999999998,0.3451,0.24346702035388695,-0.05,0.254,1.038,6.902,-0.1635,0.19152010338343076,-0.426,-0.20500000000000002,0.408,-3.27,,,,,,0.0,,,,,,0.0,,,,,,0.0,-97.9,4.22965719651132,-103.0,-98.0,-91.0,-1958.0
-0.25359999999999994,0.2702181341065029,-1.156,-0.193,0.032,-5.071999999999999,0.6601999999999999,0.3126588556238252,-0.05,0.725,1.144,13.203999999999999,0.74,0.3276473714223876,0.296,0.671,1.54,14.8,,,,,,0.0,,,,,,0.0,,,,,,0.0,-96.2,3.4871191548325386,-102.0,-95.5,-92.0,-1924.0
-0.144,0.07504665215717488,-0.284,-0.132,-0.002,-1.152,0.7605,0.1609836948265258,0.524,0.819,0.974,6.084,0.458,0.09072485877641254,0.28,0.478,0.578,3.664,,,,,,0.0,,,,,,0.0,,,,,,0.0,-100.25,2.7726341266023544,-103.0,-100.5,-97.0,-802.0
-0.11242857142857145,0.006008497384232312,-0.122,-0.113,-0.098,-1.5740000000000003,0.8791428571428571,0.007661192958738248,0.862,0.88,0.898,12.308,0.46528571428571425,0.006828810515838339,0.448,0.466,0.472,6.513999999999999,,,,,,0.0,,,,,,0.0,,,,,,0.0,-98.14285714285714,0.6388765649999399,-99.0,-98.0,-97.0,-1374.0
,,,,,,,,,,,,,,,,,,,,,,,,,,,,,,,,,,,,,,,,,
-0.10333333333333333,0.018427033281447004,-0.144,-0.104,-0.042,-1.86,0.8914444444444444,0.03543887103516298,0.848,0.88,0.992,16.046,0.4778888888888889,0.0384446050092986,0.454,0.464,0.614,8.602,,,,,,0.0,,,,,,0.0,,,,,,0.0,-100.44444444444444,2.006163342807532,-104.0,-100.0,-98.0,-1808.0
-0.44820000000000004,0.5645684723751407,-1.37,-0.394,0.276,-8.964,0.5250000000000001,0.28675459891691363,0.15,0.52,0.984,10.500000000000002,0.18860000000000002,0.45981739853989867,-0.636,0.19899999999999998,0.798,3.7720000000000002,,,,,,0.0,,,,,,0.0,,,,,,0.0,-93.2,6.1773780845922,-101.0,-94.5,-82.0,-1864.0
-0.030900000000000018,0.7267201593460857,-2.088,0.122,1.286,-0.6180000000000003,0.7095,0.6063411168640965,-0.302,0.5309999999999999,2.4,14.19,0.0014999999999999957,0.5443197130363735,-0.914,-0.003,1.042,0.029999999999999916,,,,,,0.0,,,,,,0.0,-97.0,1.0,-98.0,,-96.0,-776.0,-88.9,4.182104733265296,-94.0,-89.5,-82.0,-1778.0
0.46930000000000005,0.06532465078360541,0.38,0.456,0.636,9.386000000000001,0.8189,0.07100274642575455,0.688,0.816,0.994,16.378,0.31599999999999995,0.09353929655497738,0.104,0.33899999999999997,0.45,6.319999999999999,,,,,,0.0,,,,,,0.0,,,,,,0.0,-92.3,4.473253849269008,-101.0,-90.0,-89.0,-1846.0
-0.17225,0.21375789459105365,-0.316,-0.268,0.376,-2.756,0.968125,0.1797365693869781,0.76,0.9319999999999999,1.42,15.49,0.072625,0.12110680977963213,-0.138,0.093,0.28,1.162,,,,,,0.0,,,,,,0.0,,,,,,0.0,-87.125,1.4523687548277813,-90.0,-87.0,-85.0,-1394.0
-0.2589,0.029748781487650887,-0.29,-0.271,-0.186,-5.178,0.9208000000000001,0.0509054024637857,0.75,0.927,0.988,18.416,0.1603,0.05128849773584717,0.11,0.14100000000000001,0.304,3.206,,,,,,0.0,,,,,,0.0,,,,,,0.0,-86.9,2.50798724079689,-91.0,-85.5,-85.0,-1738.0
0.18425000000000002,0.5780795252385263,-0.786,0.11499999999999999,1.728,2.9480000000000004,0.8182499999999999,0.33207369287554234,0.146,0.87,1.304,13.091999999999999,0.023749999999999993,0.1585620935154427,-0.222,0.048,0.302,0.3799999999999999,,,,,,0.0,,,,,,0.0,,,,,,0.0,-96.125,6.050568155140474,-103.0,-98.0,-88.0,-1538.0
0.42479999999999996,0.0677005169847321,0.332,0.443,0.528,4.247999999999999,0.8224,0.11299840706841846,0.67,0.832,1.036,8.224,-0.2434,0.11448685514066669,-0.474,-0.20500000000000002,-0.114,-2.434,,,,,,0.0,,,,,,0.0,,,,,,0.0,-94.2,5.1536394906900505,-103.0,-95.0,-89.0,-942.0
0.19924999999999998,0.02334389641855019,0.174,0.194,0.232,1.5939999999999999,0.93425,0.04502707518815762,0.87,0.93,1.006,7.474,-0.027999999999999997,0.037828560638755476,-0.104,-0.012,0.006,-0.22399999999999998,,,,,,0.0,,,,,,0.0,,,,,,0.0,-103.0,1.0,-104.0,-103.0,-102.0,-824.0
0.1645,0.004974937185533094,0.16,0.163,0.172,0.658,0.9430000000000001,0.007141428428542821,0.934,0.944,0.95,3.7720000000000002,-0.005000000000000001,0.007280109889280518,-0.014,-0.006,0.006,-0.020000000000000004,,,,,,0.0,,,,,,0.0,,,,,,0.0,-104.0,0.0,-104.0,-104.0,-104.0,-416.0
0.155,0.007000000000000006,0.144,0.157,0.162,0.62,0.9455,0.004330127018922197,0.94,0.945,0.952,3.782,0.0115,0.005361902647381804,0.006,0.01,0.02,0.046,,,,,,0.0,,,,,,0.0,,,,,,0.0,-103.0,0.0,-103.0,-103.0,-103.0,-412.0
0.3845714285714285,0.09415618808714614,0.19,0.396,0.526,5.3839999999999995,0.9004285714285716,0.14445004785921883,0.678,0.928,1.15,12.606000000000002,0.034999999999999996,0.15474541304071943,-0.236,0.003000000000000001,0.28,0.49,,,,,,0.0,,,,,,0.0,,,,,,0.0,-92.42857142857143,1.8405855323893037,-95.0,-92.0,-90.0,-1294.0
0.43074999999999997,0.3568395122460516,-0.296,0.502,0.932,6.8919999999999995,0.754375,0.19805834841026015,0.318,0.78,1.068,12.07,0.04650000000000001,0.1136716763314415,-0.144,0.058,0.23,0.7440000000000001,,,,,,0.0,,,,,,0.0,,,,,,0.0,-95.625,7.210019070709869,-105.0,-96.5,-82.0,-1530.0
-0.29000000000000004,0.021954498400100147,-0.352,-0.29,-0.25,-5.800000000000001,0.8844,0.14280280109297575,0.684,0.854,1.198,17.688,-0.3175,0.14055586078139895,-0.696,-0.273,-0.18,-6.3500000000000005,,,,,,0.0,,,,,,0.0,,,,,,0.0,-83.2,0.7483314773547882,-84.0,-83.0,-82.0,-1664.0
-0.288,0.0041952353926806045,-0.296,-0.288,-0.28,-5.76,0.8395999999999999,0.006053098380168627,0.828,0.84,0.85,16.791999999999998,-0.26850000000000007,0.005860887304837047,-0.276,-0.271,-0.256,-5.370000000000001,,,,,,0.0,,,,,,0.0,,,,,,0.0,-82.8,0.4,-83.0,-83.0,-82.0,-1656.0
-0.2879,0.004357751713900181,-0.296,-0.288,-0.276,-5.758,0.8360000000000001,0.0047328638264796975,0.83,0.838,0.846,16.720000000000002,-0.27020000000000005,0.007068238818828922,-0.28,-0.272,-0.25,-5.404000000000001,,,,,,0.0,,,,,,0.0,,,,,,0.0,-82.9,0.30000000000000004,-83.0,-83.0,-82.0,-1658.0
-0.2819,0.025895752547473876,-0.306,-0.288,-0.186,-5.638,0.8562,0.043289259637928686,0.824,0.842,1.022,17.124,-0.2474,0.050998431348424834,-0.284,-0.273,-0.11,-4.948,,,,,,0.0,,,,,,0.0,,,,,,0.0,-82.5,0.5,-83.0,-82.5,-82.0,-1650.0
-0.17980000000000002,0.2329179254587332,-0.64,-0.186,0.108,-3.596,0.8889000000000001,0.22365283365072755,0.39,0.921,1.34,17.778000000000002,-0.021899999999999992,0.13632237527273355,-0.222,-0.027000000000000003,0.27,-0.43799999999999983,,,,,,0.0,,,,,,0.0,,,,,,0.0,-87.2,5.0556898639058145,-94.0,-86.0,-81.0,-1744.0
-0.576,0.4882816809998098,-1.17,-0.75,0.232,-9.216,0.7743749999999999,0.3104353545828825,0.336,0.739,1.47,12.389999999999999,0.16549999999999998,0.3702232434626438,-0.25,-0.033,0.92,2.6479999999999997,,,,,,0.0,,,,,,0.0,,,,,,0.0,-87.75,3.929058411375428,-94.0,-86.0,-84.0,-1404.0
0.10966666666666665,0.18857506610248229,-0.218,0.191,0.286,0.6579999999999999,0.7426666666666667,0.09551032521262935,0.624,0.719,0.91,4.456,0.524,0.22422904956019116,0.198,0.593,0.764,3.144,,,,,,0.0,,,,,,0.0,,,,,,0.0,-94.0,0.0,-94.0,-94.0,-94.0,-564.0
,,,,,,,,,,,,,,,,,,,,,,,,,,,,,,,,,,,,,,,,,
0.3415,0.2518149121875033,-0.036,0.40900000000000003,0.584,1.366,0.6475,0.21691645857334108,0.352,0.638,0.962,2.59,-0.0295,0.08380184962159248,-0.114,-0.034,0.064,-0.118,,,,,,0.0,,,,,,0.0,-100.0,0.0,-100.0,-100.0,-100.0,-400.0,,,,,,0.0
0.49699999999999994,0.33318813504285133,0.082,0.371,0.952,2.9819999999999998,0.7919999999999999,0.24514757460218395,0.434,0.89,1.08,4.752,0.27666666666666667,0.27259901361197586,-0.106,0.251,0.648,1.66,,,,,,0.0,,,,,,0.0,-105.0,0.0,-105.0,,-105.0,-420.0,-98.0,0.0,-98.0,,-98.0,-196.0
-0.7269999999999999,0.6722621016637286,-1.924,-0.7889999999999999,0.774,-8.723999999999998,0.2818333333333333,0.3164326767084728,-0.142,0.22299999999999998,0.964,3.382,-0.31683333333333336,0.3520222136298914,-0.856,-0.325,0.316,-3.8020000000000005,,,,,,0.0,,,,,,0.0,,,,,,0.0,-91.5,4.856267428111155,-98.0,-93.5,-85.0,-1098.0
-0.7503,0.2126633724927732,-1.28,-0.721,-0.41,-15.006,0.3634,0.202913873355175,0.006,0.33299999999999996,0.784,7.268,0.05500000000000001,0.22674964167557132,-0.372,0.019,0.716,1.1,-102.0,0.0,-102.0,,-102.0,-408.0,,,,,,0.0,,,,,,0.0,-87.4,3.49857113690718,-93.0,-89.0,-82.0,-1748.0
-0.8250000000000002,0.08576362865457594,-0.968,-0.829,-0.628,-16.500000000000004,0.4619,0.07873874522749268,0.368,0.43,0.67,9.238,0.029700000000000004,0.0399563511847616,-0.074,0.038,0.088,0.5940000000000001,,,,,,0.0,,,,,,0.0,,,,,,0.0,-89.5,1.02469507659596,-91.0,-89.5,-88.0,-1790.0
-0.8102,0.09926308477979111,-1.154,-0.79,-0.666,-16.204,0.48019999999999996,0.07211074815864832,0.35,0.482,0.678,9.604,0.10470000000000002,0.027772468381474485,0.056,0.106,0.166,2.0940000000000003,,,,,,0.0,,,,,,0.0,,,,,,0.0,-87.4,1.42828568570857,-90.0,-87.0,-86.0,-1748.0
-0.8319000000000001,0.01262497524750049,-0.852,-0.831,-0.808,-16.638,0.4548,0.03463755187654001,0.408,0.44,0.56,9.096,0.0738,0.01658794743179517,0.038,0.07100000000000001,0.112,1.4760000000000002,,,,,,0.0,,,,,,0.0,,,,,,0.0,-88.2,2.4413111231467406,-94.0,-88.0,-86.0,-1764.0
-0.8144,0.011341957503006221,-0.832,-0.816,-0.796,-16.288,0.4784,0.020895932618574357,0.454,0.474,0.518,9.568,0.09870000000000002,0.008562125904236634,0.082,0.102,0.112,1.9740000000000004,,,,,,0.0,,,,,,0.0,,,,,,0.0,-91.7,2.193171219946131,-94.0,-92.0,-87.0,-1834.0
-0.8319000000000001,0.006114736298484184,-0.848,-0.832,-0.824,-16.638,0.4577000000000001,0.009985489472229185,0.444,0.455,0.478,9.154000000000002,0.08960000000000001,0.006711184694225006,0.078,0.088,0.102,1.7920000000000003,,,,,,0.0,,,,,,0.0,,,,,,0.0,-87.0,0.0,-87.0,-87.0,-87.0,-1740.0
-0.8263,0.005450688029964663,-0.836,-0.826,-0.814,-16.526,0.45760000000000006,0.008662563131083078,0.444,0.456,0.48,9.152000000000001,0.10230000000000002,0.00721872564930958,0.088,0.102,0.112,2.0460000000000003,,,,,,0.0,,,,,,0.0,,,,,,0.0,-86.1,0.30000000000000004,-87.0,-86.0,-86.0,-1722.0
-0.8194000000000001,0.007825599018605512,-0.834,-0.819,-0.808,-16.388,0.46849999999999986,0.009118662182579182,0.45,0.469,0.486,9.369999999999997,0.08910000000000001,0.011053958566956906,0.072,0.09,0.108,1.7820000000000003,,,,,,0.0,,,,,,0.0,,,,,,0.0,-88.6,1.4966629547095764,-90.0,-89.0,-86.0,-1772.0
-0.8180999999999999,0.03279313952643143,-0.84,-0.828,-0.706,-16.362,0.4431000000000001,0.026256237354198343,0.364,0.449,0.47,8.862000000000002,0.08560000000000001,0.018906083676954358,0.032,0.092,0.114,1.7120000000000002,-102.0,0.0,-102.0,,-102.0,-204.0,,,,,,0.0,,,,,,0.0,-90.1,0.5385164807134504,-91.0,-90.0,-89.0,-1802.0
-0.7689999999999999,0.21561307938063498,-1.128,-0.762,-0.448,-12.303999999999998,0.250875,0.08588937288745331,0.12,0.248,0.418,4.014,-0.22612500000000002,0.14069909159266097,-0.386,-0.299,0.024,-3.6180000000000003,-102.0,0.0,-102.0,,-102.0,-204.0,,,,,,0.0,,,,,,0.0,-91.125,5.206666399914632,-102.0,-90.0,-85.0,-1458.0
-0.7402500000000001,0.0800277295691937,-0.832,-0.755,-0.56,-11.844000000000001,0.24975,0.040987040634815286,0.184,0.238,0.31,3.996,-0.36424999999999996,0.05222966111320272,-0.458,-0.371,-0.232,-5.827999999999999,,,,,,0.0,,,,,,0.0,,,,,,0.0,-97.5,2.1213203435596424,-102.0,-96.0,-96.0,-1560.0
-0.77525,0.04073005646939371,-0.858,-0.781,-0.724,-6.202,0.32775,0.01246745763979168,0.306,0.326,0.352,2.622,-0.34075,0.025415300509732324,-0.4,-0.338,-0.312,-2.726,,,,,,0.0,,,,,,0.0,,,,,,0.0,-94.5,2.598076211353316,-98.0,-94.0,-92.0,-756.0
-0.7973333333333333,0.012944325225965078,-0.81,-0.802,-0.776,-4.784,0.3126666666666667,0.009357112565078807,0.294,0.313,0.322,1.8760000000000001,-0.308,0.008485281374238578,-0.32,-0.309,-0.298,-1.848,,,,,,0.0,,,,,,0.0,,,,,,0.0,-102.66666666666667,3.2998316455372216,-105.0,-105.0,-98.0,-616.0
-0.8036,0.012224565431948877,-0.822,-0.802,-0.784,-4.018,0.3292,0.014837789592793117,0.318,0.326,0.358,1.646,-0.3324,0.02309632005320328,-0.378,-0.32,-0.318,-1.662,,,,,,0.0,,,,,,0.0,,,,,,0.0,-99.0,2.0,-103.0,-98.0,-98.0,-495.0
-0.8466000000000001,0.038564750744689125,-0.896,-0.85,-0.752,-16.932000000000002,0.30169999999999997,0.05997424447210652,0.194,0.312,0.384,6.034,-0.2961,0.06875019999970909,-0.378,-0.322,-0.152,-5.922,,,,,,0.0,,,,,,0.0,,,,,,0.0,-92.15,5.738248861804445,-103.0,-92.0,-86.0,-1843.0
-0.7741250000000001,0.05151926217445279,-0.872,-0.771,-0.692,-12.386000000000001,0.444875,0.0694621074759469,0.28,0.449,0.574,7.118,0.074125,0.10147775310382073,-0.136,0.056999999999999995,0.29,1.186,,,,,,0.0,,,,,,0.0,,,,,,0.0,-89.75,5.4715171570598224,-102.0,-87.0,-86.0,-1436.0
-0.8413,0.02103592165796402,-0.866,-0.848,-0.786,-16.826,0.4386,0.04610032537846128,0.384,0.426,0.536,8.772,0.07820000000000002,0.026244237462726933,0.006,0.082,0.108,1.5640000000000003,,,,,,0.0,,,,,,0.0,,,,,,0.0,-87.7,6.157109711544858,-102.0,-86.0,-83.0,-1754.0
-0.8486315789473685,0.015410900196787541,-0.874,-0.848,-0.81,-16.124000000000002,0.4116842105263158,0.02010774302700054,0.38,0.414,0.438,7.822000000000001,0.07863157894736843,0.016454756235510848,0.054,0.078,0.122,1.4940000000000002,,,,,,0.0,,,,,,0.0,,,,,,0.0,-87.78947368421052,2.6671283072252483,-92.0,-87.0,-84.0,-1668.0
-0.8430000000000001,0.11656042781893576,-1.048,-0.846,-0.562,-10.116000000000001,0.34466666666666673,0.12503954929896738,0.124,0.33,0.562,4.136000000000001,0.12183333333333335,0.07656134069417077,0.016,0.124,0.262,1.4620000000000002,-100.0,0.0,-100.0,,-100.0,-400.0,,,,,,0.0,,,,,,0.0,-91.0,1.0,-92.0,,-90.0,-728.0
-0.9887692307692307,0.3328714591009924,-1.704,-0.872,-0.61,-12.854,0.2173846153846154,0.29738075527758595,-0.26,0.126,0.812,2.826,-0.1549230769230769,0.27320841904430104,-0.632,-0.104,0.156,-2.014,,,,,,0.0,,,,,,0.0,,,,,,0.0,-92.92307692307692,2.0925339244208376,-95.0,-94.0,-90.0,-1208.0
-0.889375,0.11295290777576288,-1.162,-0.874,-0.72,-14.23,0.307125,0.10030445840041209,0.182,0.293,0.64,4.914,-0.04325,0.09883540610530216,-0.268,-0.036000000000000004,0.156,-0.692,-97.0,0.0,-97.0,,-97.0,-388.0,,,,,,0.0,,,,,,0.0,-96.9375,3.4905005013608004,-102.0,-97.0,-92.0,-1551.0
-0.8346,0.04417284233553463,-0.898,-0.831,-0.752,-16.692,0.4736000000000001,0.08508254815178022,0.352,0.476,0.704,9.472000000000001,0.09280000000000002,0.05308257717933447,0.016,0.078,0.194,1.8560000000000003,-100.0,1.0,-101.0,,-99.0,-800.0,,,,,,0.0,,,,,,0.0,-97.4375,4.485654216499529,-102.0,,-90.0,-1559.0
-0.8334666666666668,0.035164123130764335,-0.89,-0.832,-0.762,-12.502000000000002,0.45519999999999994,0.028573180898644565,0.414,0.45,0.518,6.827999999999999,0.02893333333333333,0.03546917284378397,-0.026,0.04,0.078,0.43399999999999994,,,,,,0.0,,,,,,0.0,,,,,,0.0,-96.4,4.144072071445347,-101.0,-97.0,-90.0,-1446.0
-0.7341666666666667,0.2434467201577289,-1.108,-0.798,-0.29,-8.81,0.38066666666666665,0.17499777776366826,0.12,0.386,0.732,4.568,0.058666666666666666,0.1328340652426511,-0.116,0.044000000000000004,0.302,0.704,-101.0,0.0,-101.0,,-101.0,-404.0,,,,,,0.0,,,,,,0.0,-95.0,1.632993161855452,-97.0,-95.0,-93.0,-1140.0
-0.854235294117647,0.07655181206735637,-1.024,-0.832,-0.73,-14.521999999999998,0.40588235294117647,0.11929492980347743,0.168,0.402,0.6,6.9,0.10917647058823529,0.07669667934687506,-0.026,0.12,0.22,1.8559999999999999,,,,,,0.0,,,,,,0.0,,,,,,0.0,-92.05882352941177,6.70794601889338,-103.0,-90.0,-81.0,-1565.0
-0.7543,0.2829864131014067,-1.038,-0.86,-0.104,-15.086,0.4343,0.12346865999110868,0.188,0.451,0.688,8.686,0.0805,0.13606744651091238,-0.17,0.05,0.27,1.61,,,,,,0.0,,,,,,0.0,,,,,,0.0,-83.4,3.4117444218463957,-93.0,-82.0,-81.0,-1668.0
-0.8505,0.20366234310740902,-1.288,-0.843,-0.218,-17.01,0.5107999999999999,0.18703090653686089,0.194,0.451,1.148,10.216,-0.03430000000000001,0.1710500219234128,-0.594,-0.045,0.326,-0.6860000000000002,,,,,,0.0,,,,,,0.0,,,,,,0.0,-90.7,1.0535653752852738,-93.0,-90.0,-90.0,-1814.0
-0.8200999999999998,0.041739549590286654,-0.898,-0.828,-0.744,-16.401999999999997,0.4612000000000001,0.03620165742062095,0.4,0.458,0.552,9.224000000000002,0.09840000000000002,0.03962625392337762,0.016,0.113,0.144,1.9680000000000004,,,,,,0.0,,,,,,0.0,,,,,,0.0,-91.05,6.1682655584856265,-102.0,-90.0,-83.0,-1821.0
-0.7656842105263157,0.10974854159519144,-0.872,-0.834,-0.564,-14.548,0.38399999999999995,0.07740257033675847,0.24,0.396,0.542,7.295999999999999,-0.06757894736842106,0.14997624927387798,-0.328,-0.042,0.11,-1.284,-104.0,0.0,-104.0,,-104.0,-416.0,,,,,,0.0,,,,,,0.0,-93.47368421052632,3.393002412902357,-98.0,-94.0,-88.0,-1776.0
-0.4428333333333334,0.18225158130696392,-0.872,-0.38,-0.176,-5.314000000000001,0.8685,0.2589415957315471,0.526,0.845,1.438,10.422,0.07966666666666666,0.17301220252404806,-0.35,0.1,0.338,0.956,,,,,,0.0,,,,,,0.0,,,,,,0.0,-95.0,6.164414002968976,-103.0,-94.0,-88.0,-1140.0
0.2105,0.1036761785561177,0.08,0.219,0.436,1.684,0.93025,0.02994056612691214,0.88,0.945,0.968,7.442,-0.00775,0.09163753324920962,-0.144,0.006,0.16,-0.062,,,,,,0.0,,,,,,0.0,,,,,,0.0,-102.5,0.5,-103.0,-102.5,-102.0,-820.0
0.24125,0.008181534085976785,0.224,0.241,0.252,1.93,0.9235,0.008046738469715547,0.91,0.925,0.934,7.388,-0.049,0.008544003745317531,-0.058,-0.05,-0.032,-0.392,,,,,,0.0,,,,,,0.0,,,,,,0.0,-98.0,0.0,-98.0,-98.0,-98.0,-784.0
0.22999999999999998,0.008246211251235315,0.22,0.22999999999999998,0.24,0.9199999999999999,0.9285,0.0038405728739343077,0.924,0.928,0.934,3.714,-0.012,0.014352700094407323,-0.026,-0.017,0.012,-0.048,,,,,,0.0,,,,,,0.0,,,,,,0.0,-99.0,0.0,-99.0,-99.0,-99.0,-396.0
0.275,0.05236410984634418,0.23,0.244,0.374,2.2,0.9645,0.08518069030009087,0.884,0.932,1.17,7.716,-0.0495,0.062191237324883644,-0.202,-0.025,0.002,-0.396,,,,,,0.0,,,,,,0.0,,,,,,0.0,-102.0,3.0,-105.0,-102.0,-99.0,-816.0
-0.473,0.1650605949341029,-0.722,-0.449,-0.272,-3.784,0.7310000000000001,0.2248399430706208,0.36,0.7030000000000001,1.09,5.848000000000001,0.14024999999999999,0.11478430859660219,-0.08,0.147,0.316,1.1219999999999999,,,,,,0.0,,,,,,0.0,,,,,,0.0,-101.0,1.0,-102.0,-101.0,-100.0,-808.0
0.10153846153846152,0.5730749199758487,-0.544,-0.132,1.504,1.3199999999999998,0.7538461538461539,0.39109665265248217,0.334,0.592,1.656,9.8,0.09230769230769233,0.3815586222961299,-0.424,0.194,0.688,1.2000000000000002,,,,,,0.0,,,,,,0.0,,,,,,0.0,-92.46153846153847,4.482708395179528,-99.0,-90.0,-86.0,-1202.0
0.7097,0.14903459329967655,0.45,0.683,1.042,14.194,0.3656,0.1932238080568748,0.038,0.35,0.766,7.311999999999999,0.6419,0.1090953252894,0.376,0.683,0.774,12.838000000000001,,,,,,0.0,,,,,,0.0,,,,,,0.0,-88.75,3.359687485466468,-94.0,-87.0,-85.0,-1775.0
0.639,0.017023513150933346,0.59,0.638,0.67,12.780000000000001,0.33969999999999995,0.01609068053253186,0.302,0.344,0.368,6.793999999999999,0.7438999999999998,0.012074352984735881,0.71,0.744,0.764,14.877999999999997,,,,,,0.0,,,,,,0.0,,,,,,0.0,-87.9,2.233830790368868,-93.0,-87.0,-86.0,-1758.0
0.6408,0.0063686733312362685,0.626,0.64,0.654,12.816,0.3348999999999999,0.010343597053249888,0.31,0.336,0.35,6.697999999999999,0.7516,0.00691664658631624,0.74,0.751,0.772,15.032000000000002,,,,,,0.0,,,,,,0.0,-100.0,0.0,-100.0,,-100.0,-100.0,-87.85,0.7262919523166974,-89.0,-88.0,-87.0,-1757.0
0.630421052631579,0.022172329340095304,0.588,0.636,0.688,11.978000000000002,0.3285263157894737,0.035332061511283486,0.236,0.332,0.44,6.242000000000001,0.7353684210526316,0.027315333126702198,0.658,0.748,0.764,13.972,,,,,,0.0,,,,,,0.0,-100.0,0.0,-100.0,,-100.0,-300.0,-87.57894736842105,0.49372797471825575,-88.0,-88.0,-87.0,-1664.0
0.41874999999999996,0.2668537755026149,-0.056,0.544,0.694,3.3499999999999996,0.8575,0.13368900478348994,0.704,0.827,1.128,6.86,-0.07750000000000001,0.22897543536370882,-0.45,-0.057,0.24,-0.6200000000000001,,,,,,0.0,,,,,,0.0,,,,,,0.0,-86.0,3.0,-89.0,-86.0,-83.0,-688.0
0.6275999999999999,0.17209485756407714,0.32,0.694,0.816,3.1379999999999995,0.6328,0.12551079634836199,0.446,0.642,0.806,3.164,-0.46399999999999997,0.048365276800613914,-0.528,-0.466,-0.41,-2.32,,,,,,0.0,,,,,,0.0,,,,,,0.0,-98.0,0.0,-98.0,-98.0,-98.0,-490.0
0.3016363636363636,0.0167074981929602,0.278,0.3,0.344,3.3179999999999996,0.7316363636363636,0.018326695517606056,0.694,0.728,0.76,8.048,-0.4656363636363636,0.019573974963398934,-0.508,-0.462,-0.434,-5.122,,,,,,0.0,,,,,,0.0,,,,,,0.0,-100.18181818181819,1.5850541612875177,-102.0,-100.0,-98.0,-1102.0
,,,,,,,,,,,,,,,,,,,,,,,,,,,,,,,,,,,,,,,,,
,,,,,,,,,,,,,,,,,,,,,,,,,,,,,,,,,,,,,,,,,
0.26725,0.003992179855667832,0.262,0.266,0.272,2.138,0.74325,0.005379358697837508,0.736,0.743,0.75,5.946,-0.46799999999999997,0.005567764362830002,-0.474,-0.47,-0.46,-3.7439999999999998,,,,,,0.0,,,,,,0.0,,,,,,0.0,-101.0,1.0,-102.0,-101.0,-100.0,-808.0
0.47866666666666663,0.07957665766067613,0.402,0.464,0.646,4.308,0.7637777777777778,0.05490553054065334,0.678,0.78,0.838,6.874,-0.15800000000000003,0.16416793569729476,-0.42,-0.106,0.034,-1.4220000000000002,,,,,,0.0,,,,,,0.0,,,,,,0.0,-97.55555555555556,3.975231959999626,-102.0,-94.0,-94.0,-878.0
0.37899999999999995,0.15566095635493615,0.038,0.423,0.56,4.547999999999999,0.8328333333333334,0.21782325913965714,0.466,0.844,1.314,9.994000000000002,-0.143,0.10011493395093461,-0.33,-0.133,0.024,-1.716,,,,,,0.0,,,,,,0.0,,,,,,0.0,-93.33333333333333,3.299831645537222,-97.0,-94.0,-89.0,-1120.0
-0.11674999999999999,0.18967192069465633,-0.218,-0.201,0.382,-1.8679999999999999,0.641375,0.04451807919261566,0.574,0.632,0.736,10.262,-0.61725,0.0278466784374726,-0.672,-0.61,-0.576,-9.876,,,,,,0.0,,,,,,0.0,,,,,,0.0,-94.5,5.656854249492381,-104.0,-91.0,-90.0,-1512.0
-0.2217,0.006396092557178959,-0.232,-0.223,-0.208,-4.434,0.6196000000000002,0.005499090833947013,0.608,0.621,0.626,12.392000000000003,-0.6075999999999999,0.006590902821313638,-0.618,-0.609,-0.594,-12.152,,,,,,0.0,,,,,,0.0,,,,,,0.0,-89.8,0.39999999999999997,-90.0,-90.0,-89.0,-1796.0
-0.22510000000000002,0.0034336569426778826,-0.232,-0.226,-0.218,-4.502000000000001,0.6144000000000001,0.007889233169326416,0.588,0.614,0.624,12.288,-0.6064,0.0065604877867426956,-0.616,-0.608,-0.592,-12.128000000000002,,,,,,0.0,,,,,,0.0,,,,,,0.0,-89.95,0.21794494717703367,-90.0,-90.0,-89.0,-1799.0
-0.22879999999999998,0.00435430821141545,-0.238,-0.228,-0.218,-4.576,0.6157999999999999,0.006095900261651273,0.604,0.615,0.626,12.315999999999999,-0.6058999999999999,0.006707458535093608,-0.616,-0.607,-0.586,-12.117999999999999,,,,,,0.0,,,,,,0.0,,,,,,0.0,-90.2,0.9797958971132712,-92.0,-90.0,-89.0,-1804.0
0.033100000000000004,0.2099623537684792,-0.242,0.079,0.294,0.662,0.7168,0.15120370365834296,0.46,0.659,0.974,14.336,-0.4957,0.1493040856775192,-0.72,-0.5409999999999999,-0.194,-9.914,,,,,,0.0,,,,,,0.0,,,,,,0.0,-96.45,6.17636624561724,-105.0,-95.0,-89.0,-1929.0
-0.41225,0.33138487820056,-0.98,-0.449,0.142,-6.596,0.7405,0.1600554591383874,0.432,0.719,1.054,11.848,-0.34137500000000004,0.14602520116404566,-0.562,-0.388,-0.04,-5.462000000000001,,,,,,0.0,,,,,,0.0,,,,,,0.0,-90.8125,4.571908108219149,-97.0,-89.0,-86.0,-1453.0
-0.12475,0.3628332089266361,-0.462,-0.253,0.992,-1.996,0.770125,0.27126598455206286,0.08,0.816,1.188,12.322,0.431,0.3135697689510263,-0.158,0.486,0.896,6.896,,,,,,0.0,,,,,,0.0,,,,,,0.0,-90.625,5.395310463726809,-99.0,-89.0,-85.0,-1450.0
0.376625,0.14008518613686458,0.07,0.399,0.594,6.026,0.828875,0.29925571736392936,0.006,0.879,1.208,13.262,0.41825,0.22717600555516423,-0.116,0.432,0.798,6.692,,,,,,0.0,,,,,,0.0,,,,,,0.0,-98.375,5.2544623892459255,-105.0,-98.5,-93.0,-1574.0
,,,,,,,,,,,,,,,,,,,,,,,,,,,,,,,,,,,,,,,,,
0.14888888888888888,0.021911156186566215,0.102,0.158,0.174,1.3399999999999999,0.9304444444444445,0.016269337971309417,0.9,0.93,0.956,8.374,0.32177777777777783,0.062099879723944665,0.264,0.294,0.444,2.8960000000000004,,,,,,0.0,,,,,,0.0,-103.0,0.0,-103.0,,-103.0,-412.0,-101.8,2.4,-103.0,,-97.0,-509.0
0.1802857142857143,0.07444598096359972,0.048,0.176,0.32,1.262,0.8557142857142858,0.3448534737643612,0.224,0.926,1.248,5.99,0.43000000000000005,0.11945590937962963,0.288,0.414,0.6,3.0100000000000002,,,,,,0.0,,,,,,0.0,,,,,,0.0,-101.57142857142857,3.958973274443148,-105.0,-105.0,-97.0,-711.0
,,,,,,,,,,,,,,,,,,,,,,,,,,,,,,,,,,,,,,,,,
-0.7242,0.2188706467299807,-1.31,-0.731,-0.416,-14.483999999999998,0.34650000000000003,0.30025580760411613,-0.222,0.239,0.91,6.930000000000001,0.016899999999999995,0.2989685434957999,-0.552,-0.052000000000000005,0.742,0.3379999999999999,,,,,,0.0,,,,,,0.0,,,,,,0.0,-88.95,4.7378792724171435,-95.0,-91.0,-82.0,-1779.0
-0.8411000000000002,0.06978101460999259,-0.996,-0.841,-0.698,-16.822000000000003,0.41450000000000004,0.09631588654007191,0.204,0.421,0.55,8.290000000000001,-0.0453,0.09730215824944481,-0.24,-0.046,0.096,-0.906,,,,,,0.0,,,,,,0.0,,,,,,0.0,-89.55,1.2835497652993437,-93.0,-89.0,-88.0,-1791.0
-0.7094666666666666,0.3330581263917089,-1.182,-0.784,0.064,-10.642,0.8246666666666667,0.4119577108825074,0.368,0.59,1.646,12.37,0.29213333333333336,0.2323198561370843,0.048,0.158,0.786,4.382000000000001,,,,,,0.0,,,,,,0.0,-102.0,0.0,-102.0,,-102.0,-408.0,-95.4,3.555277766926235,-101.0,-95.0,-92.0,-1431.0
0.22846153846153847,0.1435166114130322,-0.03,0.326,0.376,2.97,-0.7195384615384616,0.07910714777061784,-0.872,-0.736,-0.554,-9.354000000000001,0.6156923076923078,0.09349239756454458,0.466,0.674,0.718,8.004000000000001,-97.0,0.0,-97.0,,-97.0,-388.0,,,,,,0.0,,,,,,0.0,-98.77777777777777,2.897423291201177,-102.0,,-96.0,-889.0
,,,,,,,,,,,,,,,,,,,,,,,,,,,,,,,,,,,,,,,,,
-0.17950000000000005,0.5178819846258412,-1.124,0.05500000000000001,0.314,-1.4360000000000004,0.5937500000000001,0.6038422289803852,-0.254,0.5880000000000001,1.308,4.750000000000001,0.41800000000000004,0.1463830591291219,0.198,0.441,0.608,3.3440000000000003,,,,,,0.0,,,,,,0.0,-103.0,0.0,-103.0,,-103.0,-412.0,-86.5,4.5,-91.0,-86.5,-82.0,-692.0
-0.893,0.15108275877809485,-1.214,-0.844,-0.692,-14.288,0.561625,0.20341732810898877,0.302,0.529,1.126,8.986,0.302125,0.1462608436150975,0.16,0.247,0.664,4.834,,,,,,0.0,,,,,,0.0,,,,,,0.0,-94.5,5.123475382979799,-103.0,-92.5,-90.0,-1512.0
-0.7478,0.10639342084922357,-0.872,-0.789,-0.488,-14.956000000000001,0.36139999999999994,0.10607751882467839,0.118,0.361,0.516,7.227999999999999,0.1106,0.17728406583785242,-0.326,0.181,0.296,2.212,,,,,,0.0,,,,,,0.0,,,,,,0.0,-88.8,2.7856776554368237,-92.0,-90.0,-85.0,-1776.0
-0.8574000000000002,0.10313117860278725,-1.022,-0.841,-0.69,-17.148000000000003,0.3318,0.13433376344017164,0.062,0.307,0.64,6.636,-0.30990000000000006,0.09420079617497933,-0.544,-0.278,-0.088,-6.198000000000001,,,,,,0.0,,,,,,0.0,,,,,,0.0,-90.8,3.815756805667783,-97.0,-90.0,-87.0,-1816.0
-0.818375,0.02193420559309132,-0.856,-0.8109999999999999,-0.792,-13.094,0.35050000000000003,0.022896506283710618,0.318,0.349,0.398,5.6080000000000005,-0.25812500000000005,0.023669270690074077,-0.29,-0.262,-0.218,-4.130000000000001,,,,,,0.0,,,,,,0.0,,,,,,0.0,-97.0,3.605551275463989,-102.0,-97.0,-92.0,-1552.0
,,,,,,,,,,,,,,,,,,,,,,,,,,,,,,,,,,,,,,,,,
-0.82075,0.006995534289816592,-0.832,-0.822,-0.808,-6.566,0.34975,0.02098660286944983,0.312,0.351,0.376,2.798,-0.24225,0.024787849846245234,-0.288,-0.237,-0.208,-1.938,,,,,,0.0,,,,,,0.0,-103.0,0.0,-103.0,,-103.0,-412.0,-101.0,0.0,-101.0,,-101.0,-404.0
-0.9110000000000001,0.09100366292994291,-1.038,-0.931,-0.774,-10.932000000000002,0.32783333333333337,0.0557103122311201,0.208,0.332,0.406,3.934,-0.3433333333333333,0.10169016121970154,-0.49,-0.381,-0.114,-4.12,,,,,,0.0,,,,,,0.0,,,,,,0.0,-92.66666666666667,4.988876515698588,-98.0,-94.0,-86.0,-1112.0
-0.029599999999999994,0.6282730616539276,-1.0,0.21899999999999997,0.734,-0.5919999999999999,0.29869999999999997,0.47178396539094036,-0.386,0.231,1.192,5.973999999999999,0.2716,0.35605145695531143,-0.304,0.383,0.742,5.432,,,,,,0.0,,,,,,0.0,,,,,,0.0,-88.0,4.33589667773576,-95.0,-88.0,-83.0,-1760.0
0.7643,0.040685501102972796,0.696,0.757,0.834,15.286,-0.23159999999999997,0.04482677771154201,-0.298,-0.237,-0.136,-4.632,0.6674999999999999,0.06281998089780035,0.552,0.668,0.776,13.349999999999998,,,,,,0.0,,,,,,0.0,-102.0,0.0,-102.0,,-102.0,-408.0,-93.4,5.4258639865002145,-100.0,-94.0,-84.0,-1868.0
0.763,0.030265491900843138,0.696,0.775,0.802,6.104,-0.15375,0.02936728622123604,-0.2,-0.15000000000000002,-0.114,-1.23,0.6835,0.039771220750688556,0.582,0.695,0.718,5.468,,,,,,0.0,,,,,,0.0,,,,,,0.0,-99.0,1.0,-100.0,-99.0,-98.0,-792.0
0.5101,0.4035935950928855,-0.814,0.715,0.844,10.202,0.028499999999999998,0.3392048790922678,-0.178,-0.118,1.062,0.57,0.5617,0.21283352649430023,-0.006,0.678,0.736,11.234,,,,,,0.0,,,,,,0.0,,,,,,0.0,-89.6,2.576819745345025,-94.0,-90.0,-87.0,-1792.0
-0.9074,0.20123329744353943,-1.49,-0.857,-0.648,-18.148,0.5540999999999999,0.37324387469856757,0.002,0.491,1.538,11.081999999999999,0.1509,0.1714391728864789,-0.098,0.112,0.728,3.0180000000000002,,,,,,0.0,,,,,,0.0,,,,,,0.0,-93.4,3.136877428271624,-99.0,-93.0,-90.0,-1868.0
-0.7886000000000001,0.1244959437090221,-0.994,-0.804,-0.528,-15.772000000000002,0.46230000000000004,0.0813517670367399,0.294,0.456,0.648,9.246,0.014400000000000005,0.07085647465122719,-0.104,0.002,0.108,0.2880000000000001,,,,,,0.0,,,,,,0.0,,,,,,0.0,-88.2,2.227105745132009,-92.0,-88.0,-86.0,-1764.0
-0.8898750000000001,0.17670946317331168,-1.242,-0.874,-0.618,-14.238000000000001,0.31062500000000004,0.2519183585509401,-0.384,0.378,0.544,4.970000000000001,-0.073875,0.08910238142159839,-0.264,-0.056999999999999995,0.032,-1.182,,,,,,0.0,,,,,,0.0,-95.5,4.5,-100.0,,-91.0,-764.0,-93.0,5.787918451395113,-102.0,-92.0,-86.0,-1488.0
-0.8446999999999999,0.09024029033641238,-1.108,-0.827,-0.724,-16.894,0.4787,0.05340140447591244,0.428,0.462,0.662,9.574,-0.08660000000000002,0.027474351675699282,-0.136,-0.096,-0.032,-1.7320000000000004,-100.66666666666667,2.8674417556808756,-104.0,,-97.0,-1208.0,,,,,,0.0,-98.0,0.0,-98.0,,-98.0,-392.0,-89.8,6.734983296193095,-103.0,-86.0,-85.0,-1796.0
-0.8166,0.05381858415083028,-0.89,-0.837,-0.706,-16.332,0.42350000000000004,0.07120358137060244,0.294,0.426,0.558,8.47,-0.1126,0.025076682396202254,-0.168,-0.104,-0.084,-2.2520000000000002,-104.0,0.0,-104.0,,-104.0,-416.0,,,,,,0.0,,,,,,0.0,-87.8,8.207313811473277,-104.0,-84.0,-82.0,-1756.0
-0.802,0.04885352256149669,-0.928,-0.799,-0.74,-9.624,0.45516666666666666,0.03259302924791673,0.392,0.456,0.508,5.462,-0.154,0.030583219799970918,-0.208,-0.153,-0.108,-1.8479999999999999,-102.0,0.0,-102.0,,-102.0,-408.0,,,,,,0.0,,,,,,0.0,-91.33333333333333,6.847546194724712,-101.0,-87.0,-86.0,-1096.0
-0.96725,0.18703726233026402,-1.352,-0.953,-0.628,-15.476,0.236375,0.20234650818583452,-0.084,0.197,0.56,3.782,-0.141375,0.14168401241848003,-0.464,-0.142,0.05,-2.262,-102.0,1.0,-103.0,,-101.0,-816.0,,,,,,0.0,,,,,,0.0,-93.25,6.977642868476432,-102.0,-93.0,-85.0,-1492.0
-0.7567999999999999,0.2540412564919328,-1.432,-0.762,-0.376,-15.136,0.44820000000000004,0.19921736872070164,0.006,0.447,0.934,8.964,-0.0546,0.0960855868483926,-0.226,-0.054,0.232,-1.092,,,,,,0.0,,,,,,0.0,,,,,,0.0,-87.4,6.681317235396027,-97.0,-82.0,-82.0,-1748.0
-0.8082499999999999,0.06948336131765649,-0.932,-0.828,-0.702,-12.931999999999999,0.4765,0.13710853365126474,0.292,0.45899999999999996,0.83,7.624,0.140375,0.04230377494976069,0.048,0.158,0.19,2.246,-104.0,0.0,-104.0,,-104.0,-416.0,,,,,,0.0,-101.0,0.0,-101.0,,-101.0,-404.0,-86.75,4.322904116447646,-92.0,-86.5,-82.0,-1388.0
-0.8311,0.05880297611515933,-0.978,-0.821,-0.754,-16.622,0.4603,0.11313226772234349,0.23,0.507,0.578,9.206,0.1535,0.025241830361524897,0.094,0.153,0.198,3.07,,,,,,0.0,,,,,,0.0,-100.0,0.0,-100.0,,-100.0,-400.0,-91.6,2.2449944320643644,-96.0,-91.0,-90.0,-1832.0
-0.8775,0.037957212753309516,-0.928,-0.883,-0.818,-10.53,0.30516666666666664,0.06239368735875628,0.156,0.313,0.384,3.662,0.17666666666666664,0.02577250904010361,0.146,0.174,0.23,2.1199999999999997,,,,,,0.0,,,,,,0.0,,,,,,0.0,-97.66666666666667,2.8674417556808756,-101.0,-98.0,-94.0,-1172.0
-0.8308749999999999,0.09442978542282089,-0.994,-0.853,-0.648,-13.293999999999999,0.3595,0.08385851179218481,0.214,0.375,0.472,5.752,0.110125,0.19235444984455127,-0.232,0.173,0.316,1.762,,,,,,0.0,,,,,,0.0,,,,,,0.0,-91.75,1.479019945774904,-94.0,-91.5,-90.0,-1468.0
-0.646,0.39714564918511525,-1.438,-0.695,0.082,-7.752000000000001,0.4229999999999999,0.42842696771639704,-0.146,0.305,1.358,5.075999999999999,-0.017666666666666664,0.3466216316901696,-0.392,-0.153,0.804,-0.21199999999999997,,,,,,0.0,,,,,,0.0,,,,,,0.0,-95.33333333333333,4.189935029992179,-101.0,-94.0,-91.0,-1144.0
-0.0134,0.13309861006036092,-0.144,-0.062,0.368,-0.268,0.8822000000000001,0.16072946214057957,0.544,0.896,1.378,17.644000000000002,0.4489000000000001,0.1460335235485332,0.262,0.418,0.984,8.978000000000002,,,,,,0.0,,,,,,0.0,,,,,,0.0,-91.4,2.154065922853802,-94.0,-92.0,-88.0,-1828.0
-0.044333333333333336,0.009860132971832693,-0.066,-0.043,-0.032,-0.532,0.8895000000000001,0.00963068014212912,0.876,0.888,0.912,10.674000000000001,0.459,0.00946924847422786,0.444,0.461,0.48,5.508,,,,,,0.0,,,,,,0.0,,,,,,0.0,-90.33333333333333,0.4714045207910317,-91.0,-90.0,-90.0,-1084.0
-0.0526,0.03558145584430182,-0.19,-0.044,-0.026,-1.052,0.8909,0.020952088201418032,0.824,0.894,0.924,17.818,0.4800999999999999,0.02919229350359441,0.45,0.469,0.544,9.601999999999999,,,,,,0.0,,,,,,0.0,,,,,,0.0,-90.6,0.4898979485566356,-91.0,-91.0,-90.0,-1812.0
-0.34387500000000004,0.2403460721022917,-0.68,-0.29300000000000004,-0.024,-5.502000000000001,0.40499999999999997,0.1846753908889866,0.098,0.436,0.86,6.4799999999999995,0.727875,0.16455617391942484,0.43,0.759,0.952,11.646,,,,,,0.0,,,,,,0.0,-101.5,0.5,-102.0,,-101.0,-812.0,-93.25,7.327175444876422,-102.0,-94.0,-83.0,-1492.0
-0.29816666666666664,0.155755060556275,-0.478,-0.319,-0.004,-3.5779999999999994,0.582,0.256793042481035,0.12,0.5,0.968,6.984,0.9311666666666668,0.16613339686997183,0.564,0.956,1.108,11.174000000000001,,,,,,0.0,,,,,,0.0,,,,,,0.0,-96.66666666666667,2.0548046676563256,-99.0,-97.0,-94.0,-1160.0
-0.4063333333333334,0.22265793396049366,-0.858,-0.377,-0.104,-4.876,0.758,0.21973772244807369,0.36,0.745,1.16,9.096,0.03366666666666667,0.2532322166620108,-0.242,-0.03900000000000001,0.55,0.404,,,,,,0.0,,,,,,0.0,,,,,,0.0,-95.0,5.0990195135927845,-100.0,-97.0,-88.0,-1140.0
0.3845,0.4639568406651636,-0.594,0.446,1.09,7.69,0.5271,0.505098198373346,-0.314,0.44799999999999995,1.598,10.542,0.4774,0.4894948825064467,-0.522,0.671,0.944,9.548,,,,,,0.0,,,,,,0.0,,,,,,0.0,-91.0,4.47213595499958,-98.0,-90.0,-86.0,-1820.0
0.549875,0.04090518762944378,0.496,0.548,0.664,8.798,0.18062499999999998,0.07372488979306786,0.098,0.146,0.334,2.8899999999999997,0.895625,0.02627944776817048,0.844,0.898,0.944,14.33,,,,,,0.0,,,,,,0.0,,,,,,0.0,-102.0,2.5495097567963922,-105.0,-102.0,-99.0,-1632.0
0.537625,0.011709371246997008,0.51,0.539,0.56,8.602,0.136125,0.007728801653555353,0.12,0.136,0.15,2.178,0.891875,0.014516692977396758,0.864,0.892,0.914,14.27,,,,,,0.0,,,,,,0.0,,,,,,0.0,-101.75,0.4330127018922193,-102.0,-102.0,-101.0,-1628.0
0.5435000000000001,0.005267826876426374,0.534,0.544,0.55,4.348000000000001,0.1515,0.0076648548583779525,0.142,0.152,0.162,1.212,0.901,0.00793725393319378,0.888,0.9,0.912,7.208,,,,,,0.0,,,,,,0.0,,,,,,0.0,-99.0,1.0,-100.0,-99.0,-98.0,-792.0
0.541,0.008660254037844395,0.536,0.536,0.556,2.164,0.154,0.006782329983125274,0.144,0.155,0.162,0.616,0.9035,0.008529361054615998,0.894,0.904,0.912,3.614,,,,,,0.0,,,,,,0.0,,,,,,0.0,-98.0,0.0,-98.0,-98.0,-98.0,-392.0
0.5529999999999999,0.10054600936884567,0.376,0.559,0.718,8.847999999999999,0.426375,0.2578383396141854,0.118,0.325,0.942,6.822,0.712875,0.20945759564885683,0.268,0.815,0.96,11.406,,,,,,0.0,,,,,,0.0,,,,,,0.0,-90.0,7.516648189186454,-98.0,-90.0,-82.0,-1440.0
0.734,0.03569313659514952,0.7,0.722,0.792,2.936,0.479,0.09038252043398658,0.354,0.496,0.57,1.916,-0.1725,0.14459858228903907,-0.392,-0.156,0.014,-0.69,,,,,,0.0,,,,,,0.0,,,,,,0.0,-96.0,0.0,-96.0,-96.0,-96.0,-384.0
0.6937500000000001,0.029435310428123553,0.652,0.6859999999999999,0.758,5.550000000000001,0.35475,0.013376752221671739,0.334,0.355,0.374,2.838,-0.5357500000000001,0.034123855292155954,-0.61,-0.523,-0.498,-4.2860000000000005,,,,,,0.0,,,,,,0.0,,,,,,0.0,-96.5,1.5,-98.0,-96.5,-95.0,-772.0
0.7605,0.284925867551544,0.24,0.744,1.182,6.084,0.45825,0.21988732910288397,0.288,0.33699999999999997,0.92,3.666,0.42899999999999994,0.3583601540350155,-0.004,0.367,1.26,3.4319999999999995,,,,,,0.0,,,,,,0.0,,,,,,0.0,-93.5,0.5,-94.0,-93.5,-93.0,-748.0
,,,,,,,,,,,,,,,,,,,,,,,,,,,,,,,,,,,,,,,,,
0.572,0.008602325267042596,0.56,0.573,0.582,2.288,0.392,0.003464101615137758,0.39,0.39,0.398,1.568,0.7885,0.002958039891549811,0.784,0.789,0.792,3.154,,,,,,0.0,,,,,,0.0,,,,,,0.0,-92.0,0.0,-92.0,-92.0,-92.0,-368.0
,,,,,,,,,,,,,,,,,,,,,,,,,,,,,,,,,,,,,,,,,
0.6387499999999999,0.06898867660710706,0.518,0.651,0.792,10.219999999999999,0.6025,0.20045136567257404,0.296,0.592,1.104,9.64,0.11824999999999998,0.49947566257025977,-0.586,0.147,0.748,1.8919999999999997,,,,,,0.0,,,,,,0.0,-103.0,0.0,-103.0,,-103.0,-412.0,-95.5,1.118033988749895,-97.0,-95.5,-94.0,-1528.0
0.7854000000000001,0.14048644062684482,0.462,0.813,1.008,15.708000000000002,0.3764,0.17133079116142552,0.034,0.393,0.658,7.5280000000000005,-0.02470000000000002,0.41135496836673796,-0.724,-0.066,0.654,-0.49400000000000044,,,,,,0.0,,,,,,0.0,,,,,,0.0,-93.6,4.317406628984582,-102.0,-92.0,-90.0,-1872.0
0.836,0.01140175425099139,0.822,0.836,0.85,3.344,0.457,0.015066519173319363,0.432,0.462,0.472,1.828,0.261,0.005744562646538034,0.252,0.262,0.268,1.044,,,,,,0.0,,,,,,0.0,,,,,,0.0,-91.0,0.0,-91.0,-91.0,-91.0,-364.0
,,,,,,,,,,,,,,,,,,,,,,,,,,,,,,,,,,,,,,,,,
0.18362499999999993,0.722471874452563,-1.08,0.51,0.854,2.937999999999999,0.72925,0.3771636746824911,0.28,0.46799999999999997,1.432,11.668,0.276125,0.37477557868009487,-0.302,0.244,1.496,4.418,,,,,,0.0,,,,,,0.0,,,,,,0.0,-94.0,3.082207001484488,-98.0,-93.5,-91.0,-1504.0
0.301125,0.523142413091311,-0.61,0.185,1.208,4.818,0.402625,0.34428819232584784,-0.18,0.395,1.01,6.442,0.7057500000000001,0.38876334382243394,0.22,0.759,1.912,11.292000000000002,,,,,,0.0,,,,,,0.0,,,,,,0.0,-96.25,2.277608394786075,-99.0,-96.0,-94.0,-1540.0
0.8458333333333332,0.14260541909603416,0.4,0.887,0.95,10.149999999999999,0.01233333333333334,0.1660157288398368,-0.488,0.045,0.192,0.14800000000000008,0.37566666666666665,0.29076202564220033,-0.03,0.438,0.92,4.508,,,,,,0.0,,,,,,0.0,,,,,,0.0,-94.0,3.265986323710904,-98.0,-94.0,-90.0,-1128.0
0.8654999999999999,0.030834234221073203,0.828,0.86,0.918,6.9239999999999995,0.52075,0.10203890189530658,0.416,0.509,0.716,4.166,-0.01575,0.06625283012822925,-0.12,-0.002,0.066,-0.126,,,,,,0.0,,,,,,0.0,,,,,,0.0,-98.5,0.5,-99.0,-98.5,-98.0,-788.0
0.12440000000000001,0.33509815477458743,-0.21,-0.03,0.782,1.866,0.5638666666666666,0.27035035704721305,0.374,0.462,1.368,8.458,-0.5242666666666667,0.18582696850086705,-0.872,-0.59,-0.232,-7.864,,,,,,0.0,,,,,,0.0,,,,,,0.0,-97.93333333333334,5.50716704748357,-105.0,-98.0,-90.0,-1469.0
0.3410769230769231,0.18006087070700097,0.094,0.304,0.648,4.434,0.8675384615384616,0.20062541267999365,0.526,0.856,1.358,11.278,0.38307692307692304,0.24215267324513126,-0.324,0.452,0.658,4.9799999999999995,,,,,,0.0,,,,,,0.0,,,,,,0.0,-87.3076923076923,3.4055297878736397,-99.0,-86.0,-86.0,-1135.0
0.5189473684210527,0.05729836379055508,0.47,0.498,0.684,9.860000000000001,0.7846315789473683,0.10670579845454845,0.488,0.8,0.944,14.908,0.3357894736842105,0.06099489102623218,0.262,0.316,0.486,6.38,,,,,,0.0,,,,,,0.0,-97.0,1.0,-98.0,,-96.0,-776.0,-88.94736842105263,5.7075544049372455,-100.0,-86.0,-86.0,-1690.0
0.496,0.006928203230275515,0.48,0.496,0.51,9.92,0.8090999999999999,0.008184741901856123,0.794,0.809,0.828,16.182,0.29319999999999996,0.009474175425861615,0.28,0.291,0.32,5.863999999999999,,,,,,0.0,,,,,,0.0,-96.0,0.0,-96.0,,-96.0,-288.0,-89.2,6.3999999999999995,-102.0,-86.0,-86.0,-1784.0
0.48058823529411765,0.031050355351815995,0.39,0.496,0.508,8.17,0.8232941176470588,0.05754564909794489,0.734,0.812,0.974,13.996,0.2708235294117647,0.06129603700280415,0.104,0.286,0.376,4.604,,,,,,0.0,,,,,,0.0,-99.11111111111111,2.6010444246043614,-102.0,,-96.0,-892.0,-85.76470588235294,0.42418250299576343,-86.0,-86.0,-85.0,-1458.0
-0.4330666666666667,0.20501689903246728,-0.724,-0.538,-0.072,-6.496,0.5790666666666667,0.1675849900465101,0.332,0.578,0.912,8.686000000000002,-0.5749333333333334,0.33360405006867383,-0.994,-0.57,-0.052,-8.624,,,,,,0.0,,,,,,0.0,,,,,,0.0,-95.73333333333333,4.639923371014751,-101.0,-98.0,-88.0,-1436.0
-0.11599999999999999,0.09497789216444003,-0.226,-0.14600000000000002,0.08,-2.32,0.8961,0.18786002768018534,0.6,0.927,1.392,17.922,0.04439999999999999,0.10712161313199126,-0.144,0.046,0.22,0.8879999999999998,,,,,,0.0,,,,,,0.0,,,,,,0.0,-90.5,5.361902647381804,-101.0,-89.0,-86.0,-1810.0
-0.21000000000000002,0.04213206749153323,-0.272,-0.19,-0.148,-1.8900000000000001,0.9786666666666667,0.048625553410161254,0.894,0.978,1.062,8.808,-0.0008888888888888889,0.08279082671198737,-0.16,0.02,0.112,-0.008,,,,,,0.0,,,,,,0.0,,,,,,0.0,-94.0,4.714045207910317,-99.0,-91.0,-86.0,-846.0
-0.7847368421052632,0.270225021652085,-1.224,-0.882,-0.288,-14.91,0.4950526315789473,0.2006792344131643,0.136,0.478,0.976,9.405999999999999,0.07831578947368421,0.10480510866996944,-0.128,0.048,0.236,1.488,,,,,,0.0,,,,,,0.0,,,,,,0.0,-93.63157894736842,2.0055325140271214,-97.0,-93.0,-91.0,-1779.0
-0.8736,0.01733897344135461,-0.92,-0.875,-0.842,-17.472,0.3544,0.049753793825194875,0.24,0.352,0.428,7.088,0.048600000000000004,0.018483506160899235,0.024,0.048,0.1,0.9720000000000001,-99.0,0.0,-99.0,,-99.0,-396.0,,,,,,0.0,,,,,,0.0,-90.45,1.9098429254784277,-93.0,-90.0,-88.0,-1809.0
-0.8834000000000002,0.007296574538781886,-0.898,-0.882,-0.872,-17.668000000000003,0.3384,0.008822698000045098,0.322,0.337,0.358,6.768,0.059800000000000006,0.012631706139710503,0.03,0.062,0.08,1.1960000000000002,,,,,,0.0,,,,,,0.0,,,,,,0.0,-92.15,1.1521718621802912,-94.0,-92.0,-91.0,-1843.0
-0.8755000000000001,0.006866585760041163,-0.888,-0.875,-0.866,-17.51,0.3520999999999999,0.008449260322655465,0.338,0.353,0.368,7.041999999999998,0.07840000000000001,0.00628012738724303,0.066,0.078,0.088,1.5680000000000003,,,,,,0.0,,,,,,0.0,,,,,,0.0,-93.4,0.4898979485566356,-94.0,-93.0,-93.0,-1868.0
-0.8758000000000001,0.00550999092558237,-0.888,-0.875,-0.866,-17.516000000000002,0.3601,0.006999285677838853,0.348,0.36,0.37,7.201999999999999,0.0819,0.007628237017817419,0.066,0.08,0.096,1.6380000000000001,,,,,,0.0,,,,,,0.0,,,,,,0.0,-93.05,0.5894913061275798,-94.0,-93.0,-92.0,-1861.0
-0.7912999999999999,0.1734396436804458,-0.89,-0.873,-0.328,-15.825999999999999,0.32130000000000003,0.058169665634246165,0.178,0.345,0.376,6.426,0.0548,0.029667490625261854,-0.002,0.064,0.094,1.096,,,,,,0.0,,,,,,0.0,,,,,,0.0,-92.4,1.8,-96.0,-92.0,-90.0,-1848.0
-0.9121,0.2718547222322981,-1.402,-0.8939999999999999,-0.352,-18.242,0.3133999999999999,0.1597812254302739,-0.202,0.33499999999999996,0.51,6.267999999999998,-0.27860000000000007,0.16945571692923198,-0.664,-0.236,-0.016,-5.572000000000002,,,,,,0.0,,,,,,0.0,,,,,,0.0,-94.4,3.583294573433783,-100.0,-93.0,-90.0,-1888.0
-0.8594000000000002,0.04514908636949368,-0.954,-0.861,-0.794,-17.188000000000002,0.31499999999999995,0.01726846837446796,0.286,0.312,0.358,6.299999999999999,-0.225,0.05153833524668797,-0.344,-0.225,-0.148,-4.5,,,,,,0.0,,,,,,0.0,,,,,,0.0,-98.3,4.616275555033516,-103.0,-100.0,-91.0,-1966.0
-0.843,0.013304134695650055,-0.858,-0.846,-0.794,-13.488,0.29974999999999996,0.009692135987490065,0.28,0.299,0.32,4.795999999999999,-0.216125,0.024077673787141485,-0.26,-0.221,-0.172,-3.458,,,,,,0.0,,,,,,0.0,,,,,,0.0,-94.625,1.7633419974582356,-97.0,-93.5,-93.0,-1514.0
-0.8405000000000001,0.007870832230456962,-0.852,-0.841,-0.826,-16.810000000000002,0.3022,0.009775479527879959,0.286,0.303,0.316,6.0440000000000005,-0.2204,0.009562426470305542,-0.24,-0.218,-0.204,-4.408,,,,,,0.0,,,,,,0.0,,,,,,0.0,-94.1,0.43588989435406733,-96.0,-94.0,-94.0,-1882.0
-0.9231999999999999,0.07271973597311807,-1.028,-0.928,-0.744,-18.464,0.29710000000000003,0.07135397676373756,0.162,0.311,0.408,5.942000000000001,-0.19720000000000004,0.03453346203322221,-0.25,-0.2,-0.104,-3.944000000000001,,,,,,0.0,,,,,,0.0,,,,,,0.0,-89.65,4.362052269287933,-95.0,-86.0,-85.0,-1793.0
-0.7223,0.11377394253518684,-0.954,-0.717,-0.502,-14.446000000000002,0.5159,0.14266530762592564,0.312,0.542,0.718,10.318,0.0511,0.11119258068774192,-0.08,0.045,0.336,1.022,,,,,,0.0,,,,,,0.0,,,,,,0.0,-89.6,4.2708313008125245,-97.0,-89.0,-85.0,-1792.0
-0.7535000000000001,0.07347346459777163,-0.848,-0.789,-0.61,-15.07,0.5515,0.077156658818277,0.434,0.521,0.674,11.03,0.04700000000000001,0.026453733195902614,-0.024,0.057999999999999996,0.078,0.9400000000000002,,,,,,0.0,,,,,,0.0,,,,,,0.0,-93.0,4.979959839195493,-101.0,-93.0,-85.0,-1860.0
-0.8089999999999999,0.010421132376090384,-0.824,-0.809,-0.788,-16.18,0.49269999999999986,0.023565016443872898,0.456,0.494,0.528,9.853999999999997,0.07630000000000002,0.0118536914081648,0.056,0.078,0.104,1.5260000000000005,,,,,,0.0,,,,,,0.0,,,,,,0.0,-90.7,0.714142842854285,-93.0,-91.0,-90.0,-1814.0
-0.8242,0.006600000000000005,-0.838,-0.82,-0.816,-16.484,0.4654,0.013343163043296734,0.422,0.471,0.48,9.308,0.0809,0.019954698694793663,0.016,0.088,0.102,1.618,,,,,,0.0,,,,,,0.0,,,,,,0.0,-92.1,0.43588989435406733,-93.0,-92.0,-91.0,-1842.0
-0.8375,0.07311463601769484,-1.002,-0.84,-0.686,-13.4,0.325625,0.09167392963651116,0.078,0.362,0.418,5.21,-0.062125,0.09403315572179848,-0.332,-0.025,0.048,-0.994,,,,,,0.0,,,,,,0.0,,,,,,0.0,-94.5,2.23606797749979,-97.0,-95.0,-91.0,-1512.0
-0.734,0.10196731502463588,-0.922,-0.705,-0.594,-8.808,0.322,0.1538765739155899,-0.1,0.344,0.492,3.864,-0.2356666666666667,0.0514576416957568,-0.32,-0.23,-0.134,-2.8280000000000003,,,,,,0.0,,,,,,0.0,,,,,,0.0,-91.58333333333333,4.536120466752276,-98.0,-90.0,-87.0,-1099.0
-0.9196923076923079,0.09171476235119458,-1.114,-0.89,-0.806,-11.956000000000003,0.268,0.13484349903042872,0.022,0.24,0.518,3.484,-0.08984615384615385,0.06223262334406307,-0.244,-0.066,0.004,-1.1680000000000001,,,,,,0.0,,,,,,0.0,,,,,,0.0,-92.76923076923077,2.939226642237354,-98.0,-91.0,-90.0,-1206.0
,,,,,,,,,,,,,,,,,,,,,,,,,,,,,,,,,,,,,,,,,
,,,,,,,,,,,,,,,,,,,,,,,,,,,,,,,,,,,,,,,,,
,,,,,,,,,,,,,,,,,,,,,,,,,,,,,,,,,,,,,,,,,
-0.8575,0.08469996064540605,-0.994,-0.856,-0.702,-10.290000000000001,0.33433333333333337,0.0819505270812146,0.158,0.362,0.422,4.0120000000000005,-0.12266666666666669,0.06161890041934284,-0.212,-0.098,-0.05,-1.4720000000000002,,,,,,0.0,,,,,,0.0,,,,,,0.0,-93.0,5.0990195135927845,-98.0,-95.0,-86.0,-1116.0
-0.8180000000000002,0.16227332368244438,-1.408,-0.788,-0.632,-15.542000000000003,0.47305263157894745,0.08942710862055582,0.364,0.45,0.742,8.988000000000001,0.11515789473684214,0.25639469227569206,-0.148,0.076,0.992,2.1880000000000006,-100.5,2.5,-103.0,,-98.0,-804.0,,,,,,0.0,,,,,,0.0,-91.47368421052632,3.135004760386406,-94.0,-93.0,-86.0,-1738.0
-0.796,0.20251814733499812,-1.112,-0.823,-0.208,-15.92,0.5063000000000001,0.05280255675627838,0.422,0.495,0.614,10.126000000000001,0.1615,0.07443890112031477,0.014,0.159,0.302,3.23,,,,,,0.0,,,,,,0.0,,,,,,0.0,-94.25,4.085033659592048,-101.0,-93.0,-89.0,-1885.0
-0.765625,0.3368302382135547,-1.754,-0.726,-0.186,-12.25,0.54625,0.216957225046782,0.046,0.599,1.084,8.74,0.052875,0.16056769405767773,-0.238,0.074,0.432,0.846,,,,,,0.0,,,,,,0.0,,,,,,0.0,-86.875,1.9324531042175384,-93.0,-86.5,-85.0,-1390.0
-0.81,0.0940412925574843,-0.96,-0.818,-0.602,-13.770000000000001,0.49164705882352944,0.11645597056220336,0.318,0.454,0.71,8.358,0.07141176470588237,0.06706542795134895,-0.02,0.056,0.236,1.2140000000000002,,,,,,0.0,,,,,,0.0,,,,,,0.0,-91.0,2.0,-93.0,-90.0,-87.0,-1547.0
-0.8209090909090908,0.057545957200159994,-0.906,-0.836,-0.702,-9.03,0.38672727272727275,0.07355034257270311,0.192,0.412,0.448,4.2540000000000004,-0.05272727272727273,0.11636704540460906,-0.256,-0.01,0.064,-0.58,,,,,,0.0,,,,,,0.0,,,,,,0.0,-90.72727272727273,2.04898684901539,-94.0,-90.0,-89.0,-998.0
-0.6355,0.3080531609966046,-1.032,-0.746,-0.002,-10.168,0.419875,0.48184980478879513,0.08,0.223,1.632,6.718,-0.20725,0.06292008820718546,-0.304,-0.21200000000000002,-0.088,-3.316,,,,,,0.0,,,,,,0.0,,,,,,0.0,-96.8125,5.83329613083375,-105.0,-98.0,-88.0,-1549.0
,,,,,,,,,,,,,,,,,,,,,,,,,,,,,,,,,,,,,,,,,
,,,,,,,,,,,,,,,,,,,,,,,,,,,,,,,,,,,,,,,,,
,,,,,,,,,,,,,,,,,,,,,,,,,,,,,,,,,,,,,,,,,
,,,,,,,,,,,,,,,,,,,,,,,,,,,,,,,,,,,,,,,,,
-0.3406666666666666,0.2675448041398341,-0.73,-0.386,0.038,-4.087999999999999,0.8056666666666668,0.35914141442550945,0.162,0.8280000000000001,1.26,9.668000000000001,-0.019333333333333324,0.2816455613394648,-0.616,0.092,0.302,-0.23199999999999987,,,,,,0.0,,,,,,0.0,,,,,,0.0,-99.0,4.08248290463863,-104.0,-99.0,-94.0,-1188.0
-0.1325263157894737,0.3241090408490803,-0.558,-0.09,0.616,-2.5180000000000002,0.7288421052631578,0.4395185479779215,-0.064,0.738,1.456,13.847999999999999,0.17600000000000002,0.38965733934479296,-0.524,0.286,0.898,3.3440000000000003,-104.0,0.0,-104.0,,-104.0,-832.0,,,,,,0.0,,,,,,0.0,-97.15789473684211,5.203876671287695,-104.0,-94.0,-90.0,-1846.0
0.5151,0.08610569086883862,0.368,0.5,0.738,10.302,0.538,0.11883938741006704,0.142,0.571,0.658,10.760000000000002,0.7482999999999999,0.07768983202453202,0.614,0.723,0.972,14.965999999999998,-100.0,0.0,-100.0,,-100.0,-300.0,,,,,,0.0,,,,,,0.0,-93.15,4.05308524460071,-101.0,-91.0,-90.0,-1863.0
0.4973000000000001,0.013285706605220526,0.472,0.496,0.53,9.946000000000002,0.5578000000000001,0.02414042253151339,0.496,0.561,0.594,11.156,0.712,0.01193314711214105,0.696,0.711,0.742,14.239999999999998,-100.16666666666667,2.7638539919628333,-104.0,,-98.0,-1202.0,,,,,,0.0,,,,,,0.0,-94.5,6.06217782649107,-105.0,,-91.0,-1512.0
0.4965,0.004272001872658769,0.486,0.496,0.504,7.944,0.56325,0.006703543838895922,0.55,0.56,0.576,9.012,0.711375,0.006881814804250408,0.7,0.711,0.726,11.382,-98.0,0.0,-98.0,,-98.0,-490.0,,,,,,0.0,,,,,,0.0,-97.3125,6.733486745364544,-105.0,-97.0,-90.0,-1557.0
0.5036666666666666,0.0058783973628494714,0.486,0.504,0.51,6.043999999999999,0.5673333333333334,0.006289320754704368,0.56,0.568,0.582,6.808,0.7079999999999999,0.004242640687119289,0.7,0.71,0.716,8.495999999999999,,,,,,0.0,,,,,,0.0,,,,,,0.0,-98.75,7.39509972887452,-105.0,-105.0,-90.0,-1185.0
0.5001000000000001,0.008910106621135358,0.48,0.499,0.518,10.002000000000002,0.5695,0.012047821379817993,0.552,0.567,0.608,11.39,0.7016999999999999,0.009905049217444586,0.674,0.704,0.712,14.033999999999997,,,,,,0.0,,,,,,0.0,,,,,,0.0,-95.05,5.152426612771889,-105.0,-92.0,-90.0,-1901.0
0.4906666666666666,0.08430104783848578,0.286,0.52,0.576,4.4159999999999995,0.6486666666666667,0.11583513188052134,0.542,0.614,0.856,5.838,0.6511111111111112,0.07452433524165025,0.526,0.668,0.734,5.86,-98.0,0.0,-98.0,,-98.0,-392.0,,,,,,0.0,,,,,,0.0,-96.0,1.8856180831641267,-98.0,-96.0,-94.0,-864.0
-0.06600000000000002,0.3325245425958382,-0.61,0.014,0.386,-0.4620000000000001,0.4511428571428572,0.13907390488660396,0.28,0.4,0.744,3.1580000000000004,0.6714285714285715,0.228557499575588,0.308,0.774,0.93,4.7,-100.0,0.0,-100.0,,-100.0,-300.0,,,,,,0.0,-102.0,0.0,-102.0,,-102.0,-408.0,,,,,,0.0
0.8863529411764706,0.15937855091369565,0.4,0.914,1.208,15.068,0.007882352941176469,0.16841890432976975,-0.488,0.028,0.3,0.13399999999999998,0.46105882352941174,0.4398984469154396,-0.03,0.416,1.912,7.838,-94.82352941176471,5.9826739459252325,-101.0,-100.0,-88.0,-1612.0,,,,,,0.0,,,,,,0.0,,,,,,0.0
,,,,,,,,,,,,,,,,,,,,,,,,,,,,,,,,,,,,,,,,,
0.42694736842105263,0.3676974548219616,-0.9,0.584,0.754,8.112,0.6067368421052631,0.32687432674464434,0.298,0.45,1.664,11.527999999999999,-0.28610526315789475,0.29498294236800987,-0.652,-0.436,0.468,-5.436,-100.61538461538461,1.9821690348807885,-103.0,,-98.0,-1308.0,,,,,,0.0,-94.4,0.4898979485566356,-95.0,,-94.0,-944.0,,,,,,0.0
0.27710000000000007,0.012255202976695244,0.258,0.278,0.322,5.542000000000002,0.9087999999999999,0.019456618411224494,0.87,0.908,0.98,18.176,-0.10540000000000001,0.01450655024463087,-0.144,-0.1,-0.09,-2.108,-97.0,3.0,-100.0,,-94.0,-776.0,,,,,,0.0,-94.8,0.4,-95.0,-95.0,-94.0,-1896.0,,,,,,0.0
,,,,,,,,,,,,,,,,,,,,,,,,,,,,,,,,,,,,,,,,,
-0.98,0.02922327839240494,-1.01,-0.982,-0.946,-3.92,0.251,0.27682666056577715,-0.194,0.33599999999999997,0.526,1.004,-0.1225,0.14403732155243654,-0.32,-0.097,0.024,-0.49,-101.0,0.0,-101.0,-101.0,-101.0,-404.0,,,,,,0.0,,,,,,0.0,,,,,,0.0
0.11299999999999999,0.2326095918534363,-0.286,0.176,0.398,2.034,-0.6045555555555555,0.3049588719487382,-0.906,-0.662,0.174,-10.882,0.6313333333333333,0.16402845281637365,0.152,0.702,0.836,11.363999999999999,-89.44444444444444,2.0608041101101566,-93.0,-89.0,-87.0,-1610.0,,,,,,0.0,-99.0,0.0,-99.0,,-99.0,-396.0,-100.5,2.5,-103.0,,-98.0,-804.0
-0.07000000000000002,0.10107225138483857,-0.288,-0.07400000000000001,0.09,-1.4000000000000004,-0.7630999999999999,0.06232327013243129,-0.876,-0.762,-0.682,-15.261999999999999,0.694,0.04026909484952448,0.636,0.687,0.768,13.879999999999999,-87.9,2.211334438749598,-94.0,-87.0,-86.0,-1758.0,,,,,,0.0,,,,,,0.0,-99.8,5.1536394906900505,-105.0,,-91.0,-998.0
-0.27,0.05000399984001279,-0.36,-0.268,-0.126,-5.4,-0.8687000000000001,0.05718137808762568,-0.978,-0.863,-0.776,-17.374000000000002,0.3727,0.13777122341040599,0.056,0.386,0.594,7.454,-94.3,1.8466185312619388,-99.0,-94.0,-92.0,-1886.0,,,,,,0.0,,,,,,0.0,-94.11111111111111,2.3306863292670035,-98.0,,-91.0,-1694.0
-0.125625,0.04959948966471329,-0.218,-0.132,-0.058,-2.01,-0.943875,0.03779198823824964,-1.034,-0.941,-0.862,-15.102,-0.069,0.06709694478886502,-0.22,-0.07300000000000001,0.034,-1.104,-95.0,4.0,-99.0,,-91.0,-380.0,,,,,,0.0,-101.5,2.5,-104.0,,-99.0,-812.0,-101.66666666666667,2.357022603955158,-105.0,,-100.0,-1220.0
-0.11439999999999999,0.06400499980470276,-0.312,-0.099,-0.014,-2.288,-0.9459,0.08114302188112049,-1.064,-0.961,-0.672,-18.918,0.042,0.12571237011527545,-0.12,0.021,0.316,0.8400000000000001,-90.14285714285714,0.3499271061118826,-91.0,,-90.0,-1262.0,,,,,,0.0,,,,,,0.0,-95.33333333333333,2.943920288775949,-98.0,,-88.0,-1716.0
-0.1275,0.06384943226059259,-0.226,-0.147,-0.03,-2.55,-0.9113000000000001,0.08022537005212253,-1.082,-0.928,-0.748,-18.226000000000003,0.40170000000000006,0.06386947627779642,0.318,0.389,0.528,8.034,-100.33333333333333,5.185449728701348,-104.0,,-93.0,-602.0,,,,,,0.0,,,,,,0.0,-89.5,2.3345235059857505,-94.0,-89.0,-87.0,-1790.0
0.11069999999999999,0.16943939919629084,-0.168,0.11299999999999999,0.408,2.214,-0.8629,0.20014941918476806,-1.184,-0.9259999999999999,-0.442,-17.258,0.4523,0.2535107690020288,0.128,0.40800000000000003,0.892,9.046,-92.55555555555556,1.9499920860871385,-96.0,,-91.0,-1666.0,,,,,,0.0,-93.66666666666667,1.7638342073763937,-96.0,,-91.0,-1686.0,-92.8,5.055689863905815,-101.0,-93.5,-86.0,-1856.0
0.528625,0.12338500466020982,0.366,0.494,0.818,8.458,-0.102375,0.3553239499034649,-0.464,-0.237,0.562,-1.638,0.85525,0.06524137874079608,0.752,0.841,0.984,13.684,,,,,,0.0,,,,,,0.0,-98.16666666666667,2.6087459737497545,-102.0,,-95.0,-1178.0,-100.16666666666667,2.4776781245530843,-103.0,,-97.0,-1202.0
0.6271666666666665,0.27555454188881656,0.254,0.71,1.032,7.525999999999999,0.02566666666666666,0.2940440254262768,-0.37,-0.05,0.624,0.30799999999999994,0.8526666666666668,0.31572913848564704,0.408,0.7989999999999999,1.394,10.232000000000001,-104.0,0.0,-104.0,,-104.0,-416.0,,,,,,0.0,-102.0,0.0,-102.0,,-102.0,-204.0,-99.0,0.816496580927726,-100.0,-99.0,-98.0,-1188.0
0.5756666666666665,0.051113164209971924,0.476,0.591,0.646,6.907999999999999,-0.38149999999999995,0.23925875114611797,-0.832,-0.323,-0.066,-4.577999999999999,0.7479999999999999,0.1130722482899024,0.542,0.783,0.926,8.975999999999999,,,,,,0.0,,,,,,0.0,,,,,,0.0,-99.16666666666667,2.4776781245530843,-102.0,-99.0,-95.0,-1190.0
0.5963333333333334,0.013387390418682147,0.568,0.602,0.608,3.5780000000000003,-0.2566666666666667,0.08295112349383152,-0.346,-0.297,-0.136,-1.5400000000000003,0.8196666666666667,0.04509865728476723,0.768,0.8069999999999999,0.902,4.918,,,,,,0.0,,,,,,0.0,,,,,,0.0,-91.0,2.8284271247461903,-95.0,-89.0,-89.0,-546.0
,,,,,,,,,,,,,,,,,,,,,,,,,,,,,,,,,,,,,,,,,
0.5525,0.020118399538730677,0.524,0.5549999999999999,0.576,2.21,-0.301,0.12405240827972666,-0.478,-0.28099999999999997,-0.164,-1.204,0.7994999999999999,0.06010615609070339,0.722,0.8,0.876,3.1979999999999995,,,,,,0.0,,,,,,0.0,,,,,,0.0,-99.0,0.0,-99.0,-99.0,-99.0,-396.0
0.5962222222222222,0.14025831548157278,0.336,0.605,0.792,10.732,0.754,0.4564198846578785,-0.17,0.8109999999999999,1.374,13.572000000000001,0.24444444444444446,0.19365439497041637,-0.016,0.20600000000000002,0.59,4.4,,,,,,0.0,,,,,,0.0,,,,,,0.0,-96.33333333333333,4.96655480858378,-103.0,-96.0,-89.0,-1734.0
-0.43529999999999996,0.2870618574453945,-0.97,-0.412,0.296,-8.706,0.7305,0.2736303163028541,0.312,0.6459999999999999,1.31,14.610000000000001,0.17060000000000003,0.45528676677452423,-0.628,0.196,0.72,3.4120000000000004,,,,,,0.0,,,,,,0.0,,,,,,0.0,-90.8,2.4819347291981715,-94.0,-91.0,-87.0,-1816.0
-0.6550999999999999,0.15542390421038843,-0.904,-0.667,-0.424,-13.101999999999999,0.6363000000000001,0.19874533956800094,-0.09,0.673,0.862,12.726,-0.1404,0.11117661624640317,-0.362,-0.156,0.142,-2.808,-93.0,0.0,-93.0,,-93.0,-372.0,,,,,,0.0,,,,,,0.0,-90.8,5.653317610041028,-101.0,-90.0,-83.0,-1816.0
-0.91525,0.18703325239111895,-1.454,-0.905,-0.688,-14.644,0.412375,0.12800433342274004,0.192,0.404,0.642,6.598,-0.03975,0.1503975980526285,-0.32,-0.018,0.288,-0.636,,,,,,0.0,,,,,,0.0,,,,,,0.0,-89.375,3.5685256059050494,-96.0,-90.0,-83.0,-1430.0
-0.39999999999999997,0.5556012958948171,-1.16,-0.605,0.394,-7.999999999999999,0.4596,0.6689602678784443,-0.57,0.495,1.656,9.192,0.2084,0.28569956247778894,-0.25,0.062,0.758,4.168,-97.0,0.0,-97.0,,-97.0,-194.0,,,,,,0.0,,,,,,0.0,-92.0,5.60357029044876,-101.0,-91.0,-82.0,-1840.0
0.4811000000000001,0.22222193861093015,0.252,0.375,1.08,9.622000000000002,-0.5804,0.13528281487313898,-0.84,-0.583,-0.336,-11.608,0.6875,0.09718410363840374,0.518,0.7,0.844,13.75,-97.0,0.0,-97.0,,-97.0,-194.0,,,,,,0.0,,,,,,0.0,-93.8,7.3999999999999995,-102.0,-95.0,-82.0,-1876.0
0.51825,0.052691911143931756,0.456,0.511,0.594,4.146,-0.40049999999999997,0.06579323673448512,-0.53,-0.375,-0.314,-3.2039999999999997,0.7595,0.0916501500271549,0.566,0.786,0.86,6.076,,,,,,0.0,,,,,,0.0,,,,,,0.0,-97.25,1.0897247358851685,-99.0,-97.0,-96.0,-778.0
-0.7414999999999999,0.5345752987185248,-1.61,-0.8140000000000001,0.47,-11.863999999999999,0.5831250000000001,0.4746603884621088,-0.276,0.457,1.576,9.330000000000002,0.020499999999999997,0.315455622869525,-0.744,0.07,0.432,0.32799999999999996,,,,,,0.0,,,,,,0.0,,,,,,0.0,-89.625,5.266343608235224,-99.0,-91.0,-82.0,-1434.0
-0.8013,0.24889859380880403,-1.582,-0.685,-0.504,-16.026,0.5191,0.1668525996201438,0.246,0.507,1.038,10.382,0.06989999999999999,0.1387003604897983,-0.168,0.041999999999999996,0.48,1.398,,,,,,0.0,,,,,,0.0,-97.66666666666667,3.7712361663282534,-103.0,,-95.0,-586.0,-90.6,5.834380858325929,-102.0,-88.5,-86.0,-1812.0
-0.8143,0.22619927055585304,-1.364,-0.844,-0.334,-16.286,0.5349,0.11059199790219905,0.312,0.551,0.712,10.698,0.18400000000000002,0.15936122489489093,-0.122,0.163,0.536,3.6800000000000006,-93.5,4.5,-98.0,,-89.0,-748.0,,,,,,0.0,-101.75,1.6393596310755,-103.0,,-99.0,-1628.0,-90.3,4.605431575867782,-95.0,-90.0,-81.0,-1806.0
-0.8260000000000001,0.069745967625376,-0.92,-0.812,-0.686,-13.216000000000001,0.473375,0.11882701450007065,0.322,0.454,0.736,7.574,0.278,0.1140964504268209,0.094,0.322,0.47,4.448,-101.0,0.0,-101.0,,-101.0,-404.0,,,,,,0.0,-95.66666666666667,4.533823502911814,-103.0,,-92.0,-1148.0,-82.5,2.9860788111948193,-86.0,,-79.0,-990.0
-0.6398,0.0689286587712252,-0.776,-0.625,-0.538,-12.796000000000001,0.6967000000000001,0.11813767392326632,0.44,0.713,0.88,13.934000000000001,0.12909999999999996,0.11664214504200443,-0.004,0.07100000000000001,0.352,2.5819999999999994,-101.6,1.2,-104.0,,-101.0,-1016.0,,,,,,0.0,-94.0,5.744562646538029,-101.0,,-85.0,-752.0,-90.7,5.780138406647371,-101.0,-89.0,-84.0,-1814.0
-0.7663000000000001,0.13531042088471976,-1.066,-0.716,-0.584,-15.326000000000002,0.5226999999999999,0.17321001703134836,0.258,0.553,0.774,10.453999999999999,0.17400000000000002,0.06128621378417825,0.078,0.172,0.306,3.4800000000000004,-88.125,7.7852023095100105,-104.0,,-73.0,-1410.0,,,,,,0.0,-82.9,3.6180105030251086,-86.0,-84.5,-74.0,-1658.0,-95.8,4.261455150532504,-101.0,,-92.0,-958.0
-0.7968,0.32795024012798035,-1.668,-0.764,-0.34,-15.935999999999998,0.5179,0.17287969805619166,0.19,0.518,0.84,10.358,0.10539999999999998,0.1156790387235302,-0.096,0.101,0.358,2.1079999999999997,-74.1,1.2206555615733703,-76.0,-73.5,-73.0,-1482.0,,,,,,0.0,-72.9,2.022374841615669,-75.0,-74.0,-69.0,-1458.0,-98.0,0.0,-98.0,,-98.0,-392.0
-0.8838000000000001,0.17848350063801416,-1.214,-0.888,-0.576,-17.676000000000002,0.3869,0.24063123238682047,0.064,0.311,0.922,7.738,0.19990000000000002,0.1398620391671736,0.006,0.167,0.478,3.998,-74.2,2.3579652245103193,-78.0,-74.0,-71.0,-1484.0,,,,,,0.0,-74.6,2.973213749463701,-79.0,-74.5,-69.0,-1492.0,-90.57142857142857,3.1558174334820746,-98.0,,-88.0,-1268.0
-0.7662,0.14567896210503423,-1.112,-0.782,-0.488,-15.324,0.4272,0.1222119470428321,0.128,0.432,0.67,8.544,0.45990000000000003,0.0845587961125275,0.352,0.436,0.728,9.198,-66.2,2.925747767665558,-72.0,-65.0,-63.0,-1324.0,,,,,,0.0,-70.8,1.7776388834631176,-74.0,-70.5,-69.0,-1416.0,-96.125,3.179524335494226,-99.0,,-91.0,-1538.0
-0.4044999999999999,0.20548564426742807,-0.816,-0.35,-0.05,-8.089999999999998,0.721,0.3512546085106927,0.102,0.86,1.236,14.42,0.3949000000000001,0.2674610065037519,0.014,0.327,0.872,7.8980000000000015,-70.3,3.132091952673165,-74.0,-71.0,-65.0,-1406.0,,,,,,0.0,-73.5,2.3769728648009427,-78.0,-72.5,-71.0,-1470.0,-91.5,4.55521678957215,-97.0,,-87.0,-732.0
-0.2619,0.200483889627072,-0.942,-0.20900000000000002,-0.018,-5.238,0.7647,0.24010437313801683,0.304,0.718,1.36,15.294,0.5098,0.2669613455165373,0.06,0.534,0.926,10.196,-70.0,3.6606010435446255,-75.0,-69.5,-65.0,-1400.0,,,,,,0.0,-76.5,4.759201613716317,-87.0,-75.0,-71.0,-1530.0,-98.33333333333333,0.9428090415820634,-99.0,,-97.0,-590.0
0.3666,0.2671869008765213,-0.18,0.34299999999999997,0.934,7.332,0.4419999999999999,0.15118597818580928,0.12,0.426,0.82,8.839999999999998,0.7855000000000001,0.22881422595634215,0.262,0.833,1.272,15.710000000000003,-78.6,7.172168430816443,-88.0,-78.0,-67.0,-1572.0,,,,,,0.0,-78.2,3.1874754901018454,-87.0,-77.0,-76.0,-1564.0,-91.0,2.5495097567963922,-95.0,,-88.0,-1456.0
-0.36300000000000004,0.5468859113197194,-1.348,-0.439,0.716,-7.260000000000001,0.5548000000000001,0.3579527343099924,0.006,0.531,1.432,11.096000000000002,0.5507000000000001,0.27521139147935,0.22,0.478,1.374,11.014000000000001,-68.9,4.504442251822083,-76.0,-69.0,-60.0,-1378.0,,,,,,0.0,-87.85714285714286,3.9434782119549316,-91.0,,-79.0,-1230.0,-100.33333333333333,3.299831645537222,-105.0,,-98.0,-602.0
-0.9392999999999999,0.27704098974700475,-1.53,-0.879,-0.538,-18.785999999999998,0.5366000000000001,0.21687332708288495,0.224,0.517,1.0,10.732000000000001,0.202,0.09400212763549558,0.048,0.208,0.462,4.04,-63.7,3.034798181098704,-69.0,-63.5,-60.0,-1274.0,,,,,,0.0,,,,,,0.0,-104.33333333333333,0.4714045207910317,-105.0,,-104.0,-626.0
-0.6951999999999999,0.2746972151296769,-1.236,-0.6990000000000001,-0.25,-13.903999999999998,0.6329,0.23428143332325763,0.302,0.544,1.118,12.658000000000001,0.3036,0.09761680183247144,0.166,0.296,0.542,6.071999999999999,-68.4,2.8354893757515645,-71.0,-69.0,-63.0,-1368.0,,,,,,0.0,,,,,,0.0,-102.0,0.0,-102.0,,-102.0,-408.0
-0.1686,0.2827522590537519,-0.612,-0.135,0.27,-3.372,0.8078,0.11342116204659518,0.646,0.776,1.002,16.156,0.4526,0.08007271695153101,0.288,0.471,0.564,9.052,-69.0,2.6076809620810595,-71.0,-70.0,-64.0,-1380.0,,,,,,0.0,,,,,,0.0,-104.0,0.0,-104.0,,-104.0,-416.0
0.22469999999999998,0.12701066884321174,-0.09,0.244,0.476,4.494,0.9474,0.14569021930109105,0.744,0.927,1.338,18.948,0.24610000000000004,0.11939426284373969,0.03,0.20500000000000002,0.59,4.922000000000001,-74.2,1.4696938456699067,-76.0,-74.5,-71.0,-1484.0,,,,,,0.0,,,,,,0.0,,,,,,0.0
0.25099999999999995,0.04574931693479149,0.166,0.255,0.322,5.019999999999999,0.8893000000000001,0.07454200158300019,0.782,0.879,1.064,17.786,0.3340000000000001,0.14159661012891517,0.08,0.423,0.51,6.6800000000000015,-75.5,1.6278820596099706,-78.0,-75.5,-73.0,-1510.0,,,,,,0.0,,,,,,0.0,,,,,,0.0
0.38880000000000003,0.11677568240006136,0.198,0.369,0.588,7.776000000000001,0.794,0.11266410253492459,0.562,0.818,0.936,15.88,0.5042000000000001,0.14662182647887045,0.37,0.439,0.848,10.084000000000001,-71.2,3.682390527904394,-76.0,-71.0,-66.0,-1424.0,,,,,,0.0,,,,,,0.0,,,,,,0.0
0.10319999999999996,0.07411720448047134,-0.092,0.109,0.24,2.063999999999999,0.6140999999999999,0.11576955558349528,0.454,0.618,0.806,12.281999999999998,0.8085000000000001,0.03650684867254361,0.742,0.808,0.898,16.17,-69.6,4.673328578219169,-78.0,-68.5,-64.0,-1392.0,,,,,,0.0,,,,,,0.0,,,,,,0.0
-0.30019999999999997,0.1166102911410481,-0.592,-0.302,-0.098,-6.004,0.44420000000000004,0.13926650710059474,0.23,0.427,0.652,8.884,0.9178000000000001,0.06587837277893253,0.782,0.933,1.03,18.356,-72.3,1.9519221295943137,-78.0,-72.0,-71.0,-1446.0,,,,,,0.0,,,,,,0.0,-99.0,0.0,-99.0,,-99.0,-396.0
-0.44899999999999995,0.09816007334960584,-0.664,-0.424,-0.256,-8.979999999999999,0.0895,0.1118979445745095,-0.136,0.075,0.304,1.79,0.9386000000000001,0.05141633981527662,0.828,0.9390000000000001,1.03,18.772000000000002,-74.3,1.9000000000000001,-76.0,-75.0,-71.0,-1486.0,,,,,,0.0,,,,,,0.0,,,,,,0.0
-0.43979999999999997,0.12288026692679341,-0.69,-0.434,-0.116,-8.796,0.1243,0.12098475110525293,-0.008,0.065,0.488,2.4859999999999998,0.9458,0.07895036415368838,0.738,0.959,1.106,18.916,-74.6,1.0198039027185568,-76.0,-75.0,-73.0,-1492.0,,,,,,0.0,,,,,,0.0,,,,,,0.0
0.1223,0.3492399032184037,-0.752,0.252,0.432,2.446,0.8168,0.1295845669823378,0.46,0.859,0.95,16.336,0.4913999999999999,0.1172435072829195,0.338,0.474,0.7,9.827999999999998,-70.2,2.4819347291981715,-76.0,-70.5,-67.0,-1404.0,,,,,,0.0,,,,,,0.0,,,,,,0.0
0.2259,0.10058523748542825,0.062,0.213,0.39,4.518,0.9268000000000001,0.06749044376798836,0.782,0.9319999999999999,1.04,18.536,0.26200000000000007,0.11332607819915061,0.078,0.239,0.454,5.240000000000001,-69.5,1.2041594578792296,-71.0,-69.5,-68.0,-1390.0,,,,,,0.0,,,,,,0.0,,,,,,0.0
-0.1005,0.14836289967508723,-0.346,-0.11699999999999999,0.326,-2.0100000000000002,0.9069999999999998,0.11046718969902332,0.718,0.91,1.112,18.139999999999997,0.43010000000000004,0.13087929553600142,0.224,0.41700000000000004,0.696,8.602,-73.0,1.4142135623730951,-75.0,-73.0,-71.0,-1460.0,,,,,,0.0,,,,,,0.0,,,,,,0.0
-0.7241,0.3453985958280665,-1.3,-0.778,-0.1,-14.482,0.5959000000000001,0.2100156898900651,0.318,0.5660000000000001,0.988,11.918000000000001,0.2091,0.15700633745170925,-0.122,0.292,0.368,4.182,-65.8,1.9899748742132404,-71.0,-65.0,-64.0,-1316.0,,,,,,0.0,,,,,,0.0,,,,,,0.0
-0.6334000000000001,0.27588773078917445,-1.112,-0.6819999999999999,-0.136,-12.668000000000001,0.6202,0.14867938660083313,0.402,0.586,0.898,12.404,0.2942,0.18790093134415276,-0.016,0.28300000000000003,0.556,5.884,-62.2,3.4583232931581165,-66.0,-63.0,-57.0,-1244.0,,,,,,0.0,-99.33333333333333,1.8856180831641267,-102.0,,-98.0,-596.0,,,,,,0.0
-0.4930999999999999,0.2730593159004102,-1.106,-0.334,-0.196,-9.861999999999998,0.8088,0.153361533638654,0.518,0.866,1.036,16.176,0.3118,0.19384622771671361,-0.18,0.292,0.752,6.236000000000001,-66.5,4.104875150354759,-72.0,-67.0,-59.0,-1330.0,,,,,,0.0,-102.0,0.0,-102.0,,-102.0,-204.0,-102.0,0.0,-102.0,,-102.0,-408.0
-0.34759999999999996,0.18016466542212617,-0.786,-0.324,-0.146,-5.2139999999999995,0.8966666666666665,0.06819058260167277,0.804,0.886,1.046,13.449999999999998,0.2546666666666667,0.1455136496079396,-0.032,0.22,0.444,3.8200000000000003,-67.8,2.3151673805580453,-72.0,-68.0,-65.0,-1017.0,,,,,,0.0,-100.0,0.0,-100.0,,-100.0,-100.0,,,,,,0.0
-0.08869999999999999,0.31272241684919233,-0.658,0.024,0.3,-1.7739999999999998,0.8885,0.1559010904387779,0.622,0.873,1.328,17.77,0.2011,0.10499614278629477,-0.026,0.193,0.396,4.022,-65.85,2.3510635891017495,-70.0,-65.0,-63.0,-1317.0,,,,,,0.0,-99.5,0.8660254037844386,-100.0,,-98.0,-398.0,,,,,,0.0
0.19770000000000004,0.10763879412182208,-0.036,0.23,0.37,3.9540000000000006,0.9462999999999999,0.1500256977987438,0.766,0.91,1.278,18.926,0.1867,0.11746876180500074,0.018,0.174,0.432,3.734,-72.7,1.8734993995195197,-76.0,-72.0,-70.0,-1454.0,,,,,,0.0,-98.0,0.0,-98.0,,-98.0,-294.0,,,,,,0.0
0.22430000000000003,0.1471655870100072,-0.2,0.22199999999999998,0.44,4.486000000000001,0.7127000000000001,0.26485790530018166,0.198,0.7949999999999999,1.016,14.254000000000001,0.5196,0.13369008938586285,0.274,0.5589999999999999,0.716,10.392,-71.1,2.681417535558384,-74.0,-72.0,-66.0,-1422.0,,,,,,0.0,,,,,,0.0,,,,,,0.0
