acceleration_x_mean,acceleration_x_std,acceleration_x_min,acceleration_x_median,acceleration_x_max,acceleration_x_sum,acceleration_y_mean,acceleration_y_std,acceleration_y_min,acceleration_y_median,acceleration_y_max,acceleration_y_sum,acceleration_z_mean,acceleration_z_std,acceleration_z_min,acceleration_z_median,acceleration_z_max,acceleration_z_sum,rssi_Kitchen_AP_mean,rssi_Kitchen_AP_std,rssi_Kitchen_AP_min,rssi_Kitchen_AP_median,rssi_Kitchen_AP_max,rssi_Kitchen_AP_sum,rssi_Lounge_AP_mean,rssi_Lounge_AP_std,rssi_Lounge_AP_min,rssi_Lounge_AP_median,rssi_Lounge_AP_max,rssi_Lounge_AP_sum,rssi_Upstairs_AP_mean,rssi_Upstairs_AP_std,rssi_Upstairs_AP_min,rssi_Upstairs_AP_median,rssi_Upstairs_AP_max,rssi_Upstairs_AP_sum,rssi_Study_AP_mean,rssi_Study_AP_std,rssi_Study_AP_min,rssi_Study_AP_median,rssi_Study_AP_max,rssi_Study_AP_sum
0.9392000000000001,0.012237646832622658,0.896,0.944,0.952,18.784000000000002,-0.2797,0.007022107945624289,-0.292,-0.28,-0.266,-5.594,0.14609999999999998,0.008061637550770934,0.13,0.144,0.16,2.9219999999999997,-91.6,1.624807680927192,-94.0,-91.0,-90.0,-1832.0,-89.8,2.6381811916545836,-95.0,-89.0,-88.0,-1796.0,-79.2,0.39999999999999997,-80.0,-79.0,-79.0,-1584.0,,,,,,0.0
0.9380000000000001,0.010881176406988326,0.904,0.943,0.946,18.76,-0.28140000000000004,0.008199999999999983,-0.298,-0.282,-0.268,-5.628000000000001,0.1426,0.006988562083862456,0.128,0.142,0.158,2.852,-91.8,1.4696938456699067,-94.0,-91.0,-90.0,-1836.0,-88.5,0.5,-89.0,,-88.0,-1416.0,-79.6,0.4898979485566356,-80.0,-80.0,-79.0,-1592.0,,,,,,0.0
0.9404,0.010461357464497587,0.91,0.942,0.952,18.808,-0.27640000000000003,0.005713142742834271,-0.286,-0.276,-0.264,-5.5280000000000005,0.14540000000000003,0.008248636250920508,0.128,0.146,0.158,2.9080000000000004,-92.4,1.854723699099141,-95.0,-92.0,-90.0,-1848.0,-88.0,0.6324555320336759,-89.0,-88.0,-87.0,-1760.0,-79.4,0.4898979485566356,-80.0,-79.0,-79.0,-1588.0,,,,,,0.0
0.9440999999999999,0.005271622141238866,0.926,0.944,0.954,18.881999999999998,-0.26830000000000004,0.008056674251823765,-0.282,-0.27,-0.252,-5.3660000000000005,0.14040000000000002,0.010248902380255161,0.112,0.142,0.156,2.8080000000000003,-90.0,2.0,-93.0,-90.0,-87.0,-1800.0,-87.8,0.7483314773547882,-89.0,-88.0,-87.0,-1756.0,-81.6,2.2449944320643644,-86.0,-81.0,-80.0,-1632.0,,,,,,0.0
0.9424000000000001,0.011429785649783614,0.902,0.945,0.952,18.848000000000003,-0.2603000000000001,0.025684820419851102,-0.282,-0.266,-0.154,-5.206000000000001,0.1295,0.010860478810807558,0.098,0.13,0.144,2.59,-86.0,0.8944271909999159,-87.0,-86.0,-85.0,-1720.0,-88.2,2.1354156504062622,-92.0,-87.0,-86.0,-1764.0,-84.8,2.3151673805580453,-88.0,-85.0,-81.0,-1696.0,,,,,,0.0
0.96,0.020519567041703077,0.93,0.956,0.998,18.24,-0.22326315789473683,0.02134637182351373,-0.27,-0.226,-0.19,-4.242,0.03242105263157895,0.047375671959654655,-0.058,0.038,0.102,0.616,-91.6842105263158,7.086329549350245,-101.0,-91.0,-81.0,-1742.0,-87.2,4.833218389437829,-95.0,,-83.0,-1308.0,-87.94736842105263,3.136771458052914,-93.0,-87.0,-85.0,-1671.0,,,,,,0.0
0.9599000000000002,0.03551605270859923,0.91,0.958,1.02,19.198000000000004,-0.1891,0.11375143955133052,-0.362,-0.221,0.034,-3.782,0.0237,0.10384464357876144,-0.116,-0.015,0.2,0.474,-95.2,5.706137047074843,-100.0,-99.0,-86.0,-1904.0,-83.0,4.2895221179054435,-90.0,-84.0,-78.0,-1660.0,-89.0,5.656854249492381,-100.0,-87.0,-84.0,-1780.0,,,,,,0.0
0.9512,0.04820124479720416,0.894,0.946,1.12,19.024,-0.2575,0.07230456417128867,-0.362,-0.253,-0.09,-5.15,0.0729,0.061567767541141204,-0.014,0.059000000000000004,0.216,1.4580000000000002,-94.8,5.3814496188294845,-103.0,-95.0,-89.0,-1896.0,-79.2,0.9797958971132714,-80.0,-80.0,-78.0,-1584.0,-93.2,5.635601121442148,-101.0,-90.0,-88.0,-1864.0,,,,,,0.0
0.9550000000000001,0.021637929660667608,0.92,0.96,0.988,19.1,-0.24230000000000002,0.07154376283087156,-0.378,-0.221,-0.136,-4.846,0.0627,0.02070048308615043,0.038,0.059,0.112,1.2540000000000002,-92.4,4.882622246293481,-101.0,-91.0,-87.0,-1848.0,-81.8,2.2271057451320093,-86.0,-81.0,-80.0,-1636.0,-90.0,4.183300132670378,-97.0,,-86.0,-1440.0,,,,,,0.0
0.9443999999999999,0.013792751719653303,0.91,0.946,0.962,18.887999999999998,-0.2612,0.029178073959739016,-0.334,-0.258,-0.218,-5.224,0.09080000000000002,0.008930845424706442,0.066,0.093,0.102,1.8160000000000003,-96.0,2.0,-98.0,,-94.0,-1536.0,-80.4,1.0198039027185568,-82.0,-80.0,-79.0,-1608.0,-94.4,1.7435595774162693,-97.0,-95.0,-92.0,-1888.0,,,,,,0.0
0.9489999999999998,0.01367479433117733,0.91,0.951,0.968,18.979999999999997,-0.24910000000000002,0.02403726273933868,-0.288,-0.25,-0.194,-4.982,0.07440000000000001,0.020323385544736387,0.032,0.08,0.102,1.4880000000000002,-89.6,2.4166091947189146,-94.0,-89.0,-87.0,-1792.0,-80.6,3.4409301068170506,-87.0,-79.0,-77.0,-1612.0,-95.25,2.8613807855648994,-99.0,,-91.0,-1524.0,,,,,,0.0
0.9532999999999999,0.011954497061775527,0.928,0.956,0.974,19.066,-0.24819999999999992,0.027465614866592734,-0.286,-0.255,-0.196,-4.963999999999999,0.039000000000000014,0.014331782861877303,0.008,0.040999999999999995,0.062,0.7800000000000002,-89.0,2.280350850198276,-92.0,-89.0,-86.0,-1780.0,-79.8,0.7483314773547882,-81.0,-80.0,-79.0,-1596.0,-89.0,2.23606797749979,-92.0,,-86.0,-1424.0,,,,,,0.0
0.9466000000000001,0.016529972776747066,0.914,0.95,0.974,18.932000000000002,-0.2726,0.03153474274510575,-0.33,-0.282,-0.192,-5.452,0.046700000000000005,0.022726856359822405,0.002,0.053000000000000005,0.078,0.934,-95.25,3.112474899497183,-98.0,,-90.0,-1524.0,-82.6,2.9393876913398134,-86.0,-82.0,-79.0,-1652.0,-94.33333333333333,2.494438257849294,-97.0,,-91.0,-1132.0,,,,,,0.0
0.9540000000000001,0.06879825579184404,0.834,0.948,1.08,19.080000000000002,-0.20189999999999997,0.13683636212644648,-0.338,-0.277,0.136,-4.037999999999999,0.0435,0.04425776767980961,-0.064,0.046,0.11,0.87,-97.25,0.82915619758885,-98.0,,-96.0,-1556.0,-80.0,4.427188724235731,-86.0,-79.0,-74.0,-1600.0,-95.5,0.5,-96.0,,-95.0,-764.0,,,,,,0.0
0.6753,0.5583003761417326,-0.45,0.919,1.238,13.506,-0.48739999999999994,0.3750429842031443,-1.188,-0.394,0.252,-9.748,0.1855,0.13600716892870024,-0.032,0.175,0.502,3.71,-95.4,4.127953488110059,-101.0,-96.0,-89.0,-1908.0,-83.0,4.427188724235731,-89.0,-82.0,-77.0,-1660.0,-92.8,4.308131845707604,-98.0,-93.0,-87.0,-1856.0,,,,,,0.0
-0.38969999999999994,0.38167906675635227,-0.832,-0.44800000000000006,0.496,-7.793999999999999,-0.6242,0.27975768085970404,-1.266,-0.463,-0.386,-12.484,0.38249999999999995,0.12251346864732875,0.12,0.406,0.542,7.6499999999999995,-82.2,2.7129319932501073,-86.0,-82.0,-78.0,-1644.0,-88.75,3.766629793329841,-95.0,,-85.0,-1420.0,-87.4,1.9595917942265424,-91.0,-86.0,-86.0,-1748.0,,,,,,0.0
0.9317894736842106,0.14883815970353007,0.62,0.932,1.232,17.704,-0.3672631578947368,0.26008193893165427,-0.858,-0.314,0.216,-6.977999999999999,0.12168421052631578,0.13610408270746285,-0.032,0.07,0.524,2.312,-88.66666666666667,1.398411797560202,-90.0,,-86.0,-1330.0,-96.5,3.5,-100.0,,-93.0,-772.0,-92.21052631578948,4.807657788071258,-98.0,-91.0,-86.0,-1752.0,,,,,,0.0
0.9513999999999999,0.048547296526171256,0.864,0.955,1.068,19.028,-0.1773,0.1817979922881438,-0.528,-0.196,0.206,-3.5460000000000003,0.1099,0.08663827098921122,0.004,0.08399999999999999,0.344,2.198,-81.8,1.4696938456699067,-84.0,-81.0,-80.0,-1636.0,-99.5,0.5,-100.0,,-99.0,-796.0,,,,,,0.0,,,,,,0.0
0.9752000000000001,0.053644757432576774,0.838,0.981,1.074,19.504,-0.1517,0.047245211397558586,-0.228,-0.148,-0.074,-3.034,-0.005700000000000001,0.061166248863241575,-0.128,0.006,0.098,-0.11400000000000002,-81.2,0.4,-82.0,-81.0,-81.0,-1624.0,-95.0,0.0,-95.0,,-95.0,-760.0,-91.0,1.0,-92.0,,-90.0,-728.0,,,,,,0.0
0.9625999999999999,0.015850552040859646,0.934,0.966,0.992,19.252,-0.1765,0.05199567289688633,-0.282,-0.182,-0.058,-3.53,0.07010000000000001,0.024847333861000055,0.03,0.07300000000000001,0.118,1.4020000000000001,-79.0,1.0954451150103321,-81.0,-79.0,-78.0,-1580.0,-102.5,1.5,-104.0,,-101.0,-820.0,-94.0,0.0,-94.0,,-94.0,-376.0,,,,,,0.0
0.9616000000000001,0.012338557452149743,0.934,0.961,0.988,19.232000000000003,-0.21390000000000003,0.05456913046769208,-0.314,-0.203,-0.13,-4.2780000000000005,0.07920000000000002,0.035689774445910975,0.03,0.074,0.192,1.5840000000000003,-82.2,1.9390719429665317,-85.0,-81.0,-80.0,-1644.0,-100.0,0.0,-100.0,,-100.0,-400.0,-93.5,0.5,-94.0,,-93.0,-748.0,,,,,,0.0
0.9595999999999998,0.01339552163971227,0.928,0.964,0.974,19.191999999999997,-0.2117,0.022902183302034765,-0.25,-0.212,-0.158,-4.234,0.06750000000000002,0.013459197598668355,0.044,0.067,0.096,1.3500000000000003,-84.6,2.8,-90.0,-84.0,-82.0,-1692.0,-90.0,3.7416573867739413,-95.0,,-86.0,-1080.0,-91.2,1.1661903789690602,-93.0,-91.0,-90.0,-1824.0,,,,,,0.0
0.9583,0.007543871685016926,0.94,0.96,0.976,19.166,-0.2284,0.008593020423576334,-0.248,-0.227,-0.212,-4.568,0.08830000000000002,0.009149316914393118,0.064,0.09,0.104,1.7660000000000002,-85.2,1.16619037896906,-87.0,-85.0,-84.0,-1704.0,-92.0,0.0,-92.0,,-92.0,-736.0,-91.4,0.4898979485566356,-92.0,-91.0,-91.0,-1828.0,,,,,,0.0
0.954,0.015401298646542742,0.92,0.959,0.976,19.08,-0.2149,0.008011866199581722,-0.232,-0.216,-0.194,-4.298,0.08880000000000002,0.008953211714239757,0.062,0.088,0.104,1.7760000000000002,-90.2,5.775811631277461,-101.0,-88.0,-85.0,-1804.0,-92.0,0.0,-92.0,,-92.0,-368.0,-91.8,0.39999999999999997,-92.0,-92.0,-91.0,-1836.0,,,,,,0.0
0.9568999999999999,0.01114405671198777,0.926,0.96,0.968,19.137999999999998,-0.2213,0.007956758133813045,-0.236,-0.222,-0.208,-4.426,0.0829,0.007495998932764065,0.064,0.081,0.096,1.6580000000000001,-85.4,0.4898979485566356,-86.0,-85.0,-85.0,-1708.0,-94.0,1.0,-95.0,,-93.0,-752.0,-91.2,0.39999999999999997,-92.0,-91.0,-91.0,-1824.0,,,,,,0.0
0.9621999999999999,0.0063213922517116475,0.952,0.961,0.974,19.244,-0.20890000000000003,0.005881326381013041,-0.218,-0.209,-0.2,-4.178000000000001,0.08000000000000002,0.010276186062932104,0.062,0.077,0.096,1.6000000000000003,-84.8,0.39999999999999997,-85.0,-85.0,-84.0,-1696.0,,,,,,0.0,-91.8,3.1240998703626612,-98.0,-90.0,-90.0,-1836.0,,,,,,0.0
0.9594999999999999,0.011676900273617133,0.924,0.962,0.974,19.189999999999998,-0.2091,0.0064953829756219895,-0.222,-0.207,-0.2,-4.182,0.08050000000000002,0.007638717169787082,0.068,0.08,0.094,1.6100000000000003,-84.8,0.4,-85.0,-85.0,-84.0,-1696.0,-95.0,0.0,-95.0,,-95.0,-760.0,-90.4,0.4898979485566356,-91.0,-90.0,-90.0,-1808.0,,,,,,0.0
0.9606000000000001,0.008416650165000332,0.944,0.961,0.976,19.212000000000003,-0.20520000000000005,0.006337191807101938,-0.216,-0.206,-0.192,-4.104000000000001,0.0772,0.0066151341634164895,0.064,0.077,0.088,1.544,-86.0,2.0976176963403033,-90.0,-85.0,-84.0,-1720.0,-96.0,0.0,-96.0,,-96.0,-384.0,-93.2,3.9191835884530852,-101.0,-91.0,-91.0,-1864.0,,,,,,0.0
0.9609,0.007388504584826356,0.94,0.96,0.974,19.218,-0.21090000000000003,0.009888882646689667,-0.232,-0.208,-0.192,-4.218000000000001,0.07860000000000003,0.006575712889109437,0.062,0.078,0.092,1.5720000000000005,-83.8,1.5999999999999999,-85.0,-85.0,-81.0,-1676.0,-97.5,2.5,-100.0,,-95.0,-780.0,-90.5,1.118033988749895,-92.0,,-89.0,-1448.0,,,,,,0.0
0.9577000000000002,0.012365678307314951,0.92,0.96,0.972,19.154000000000003,-0.21160000000000007,0.008708616422830896,-0.224,-0.211,-0.196,-4.232000000000001,0.08020000000000002,0.007533923280734941,0.07,0.079,0.094,1.6040000000000003,-83.4,0.7999999999999999,-84.0,-84.0,-82.0,-1668.0,-101.0,0.0,-101.0,,-101.0,-404.0,-91.0,0.0,-91.0,,-91.0,-364.0,,,,,,0.0
0.9517000000000003,0.013088544609695893,0.92,0.954,0.966,19.034000000000006,-0.2226,0.008968834929911467,-0.242,-0.224,-0.208,-4.452,0.0834,0.00748598690888516,0.07,0.082,0.096,1.6680000000000001,-82.2,0.7483314773547882,-83.0,-82.0,-81.0,-1644.0,-98.0,0.0,-98.0,,-98.0,-392.0,-92.0,0.816496580927726,-93.0,,-91.0,-1104.0,,,,,,0.0
0.9623000000000002,0.011104503590885988,0.926,0.966,0.974,19.246000000000002,-0.20660000000000003,0.011816936997377956,-0.226,-0.208,-0.184,-4.132000000000001,0.07870000000000002,0.008130805618141414,0.064,0.078,0.096,1.5740000000000005,-81.6,0.4898979485566356,-82.0,-82.0,-81.0,-1632.0,,,,,,0.0,-92.0,0.0,-92.0,,-92.0,-368.0,,,,,,0.0
0.9634736842105261,0.00953314672217904,0.944,0.966,0.978,18.305999999999997,-0.19526315789473683,0.009585307316069231,-0.216,-0.194,-0.178,-3.71,0.08547368421052633,0.010459789778770243,0.07,0.082,0.11,1.624,-82.36842105263158,0.48237638894272,-83.0,-82.0,-82.0,-1565.0,-99.5,0.5,-100.0,,-99.0,-796.0,-95.0,0.0,-95.0,,-95.0,-760.0,,,,,,0.0
0.9612,0.012607934009979574,0.926,0.966,0.984,19.224,-0.1854,0.013432795688165586,-0.21,-0.182,-0.164,-3.708,0.07760000000000002,0.00893532316147547,0.062,0.078,0.096,1.5520000000000003,-82.1,0.6244997998398398,-83.0,-82.0,-81.0,-1642.0,-101.0,0.0,-101.0,,-101.0,-404.0,-95.0,0.0,-95.0,,-95.0,-380.0,,,,,,0.0
0.9638000000000002,0.0066902914734710975,0.952,0.964,0.978,19.276000000000003,-0.19860000000000003,0.01822196476782896,-0.226,-0.198,-0.164,-3.9720000000000004,0.08230000000000001,0.008252878285786117,0.066,0.082,0.098,1.6460000000000001,-81.3,1.0535653752852738,-82.0,-82.0,-79.0,-1626.0,-96.0,0.0,-96.0,,-96.0,-384.0,-98.33333333333333,3.39934634239519,-103.0,,-95.0,-1180.0,,,,,,0.0
0.94925,0.013488420960216194,0.92,0.95,0.974,15.188,-0.264,0.023130067012440754,-0.298,-0.268,-0.2,-4.224,0.10450000000000001,0.009937303457175894,0.082,0.108,0.12,1.6720000000000002,-77.375,0.5994789404140899,-79.0,-77.0,-77.0,-1238.0,-100.71428571428571,1.4846149779161806,-102.0,,-99.0,-705.0,-89.8,0.8326663997864531,-91.0,,-89.0,-1347.0,,,,,,0.0
0.9549999999999998,0.009132360045464695,0.936,0.958,0.97,19.099999999999998,-0.2277,0.009039358384310248,-0.242,-0.228,-0.21,-4.554,0.10340000000000002,0.0102,0.088,0.102,0.126,2.0680000000000005,-77.0,0.0,-77.0,-77.0,-77.0,-1540.0,-99.0,0.0,-99.0,,-99.0,-495.0,-90.45,1.2835497652993435,-92.0,-91.0,-88.0,-1809.0,,,,,,0.0
0.95,0.013594116374373131,0.92,0.952,0.966,19.0,-0.23569999999999994,0.004013726448077887,-0.246,-0.234,-0.232,-4.713999999999999,0.11359999999999999,0.009891410415102593,0.088,0.112,0.13,2.272,-77.2,0.39999999999999997,-78.0,-77.0,-77.0,-1544.0,-100.0,0.0,-100.0,,-100.0,-300.0,-89.2,0.7483314773547882,-90.0,-89.0,-88.0,-1784.0,,,,,,0.0
0.9555999999999999,0.011056219968868191,0.914,0.96,0.968,19.112,-0.23969999999999997,0.009803570778037968,-0.264,-0.24,-0.224,-4.794,0.11079999999999998,0.008182909018191513,0.096,0.112,0.12,2.2159999999999997,-77.15,0.3570714214271425,-78.0,-77.0,-77.0,-1543.0,-100.0,0.0,-100.0,,-100.0,-100.0,-91.6875,4.509971590819614,-101.0,,-88.0,-1467.0,,,,,,0.0
0.9541999999999999,0.006982836100038442,0.944,0.952,0.972,19.084,-0.22420000000000004,0.005861740355901143,-0.234,-0.224,-0.216,-4.484000000000001,0.1092,0.0068234888436927935,0.092,0.108,0.12,2.184,-77.6,0.4898979485566356,-78.0,-78.0,-77.0,-1552.0,-100.06666666666666,1.7688665548562132,-103.0,,-99.0,-1501.0,-93.66666666666667,2.2110831935702664,-101.0,,-93.0,-1124.0,,,,,,0.0
0.9558,0.006600000000000006,0.944,0.956,0.972,19.116,-0.2298,0.007743384273042374,-0.244,-0.231,-0.212,-4.596,0.10270000000000001,0.011194194924156003,0.08,0.104,0.12,2.0540000000000003,-78.7,0.9539392014169458,-80.0,-78.0,-78.0,-1574.0,-99.61538461538461,0.4865042554105199,-100.0,,-99.0,-1295.0,-95.46153846153847,2.845114155216451,-99.0,,-92.0,-1241.0,,,,,,0.0
0.9522999999999999,0.01164946350696029,0.92,0.956,0.962,19.046,-0.23929999999999998,0.012779280104919839,-0.274,-0.238,-0.218,-4.786,0.08850000000000001,0.007453187237685635,0.072,0.09,0.1,1.7700000000000002,-80.95,0.21794494717703367,-81.0,-81.0,-80.0,-1619.0,-101.0,1.0,-102.0,,-100.0,-808.0,-95.0,0.0,-95.0,,-95.0,-760.0,,,,,,0.0
0.9642,0.07421563177660079,0.866,0.951,1.138,19.284,-0.24500000000000002,0.030571228303749916,-0.302,-0.252,-0.186,-4.9,0.12190000000000001,0.04700414875306222,0.056,0.124,0.2,2.438,-84.75,3.5899164335677787,-90.0,-84.0,-81.0,-1695.0,-97.53333333333333,4.2874493842169406,-100.0,,-89.0,-1463.0,-97.57894736842105,3.216990903144447,-103.0,,-94.0,-1854.0,,,,,,0.0
0.9444000000000001,0.13940243900305332,0.79,0.907,1.302,18.888,-0.15919999999999998,0.06227166289734039,-0.286,-0.17,-0.002,-3.1839999999999997,0.15109999999999998,0.06019460108680844,0.056,0.13,0.246,3.022,-80.6,2.8705400188814645,-90.0,-81.0,-77.0,-1612.0,-90.85,3.539420856580918,-95.0,-92.0,-84.0,-1817.0,-88.8,3.026549190084311,-98.0,-88.0,-86.0,-1776.0,,,,,,0.0
1.0001,0.17879874160630999,0.814,0.964,1.552,20.002,-0.1258,0.11974957202428743,-0.32,-0.13,0.064,-2.516,0.1126,0.07699116832468514,-0.058,0.10400000000000001,0.242,2.2520000000000002,-89.45,6.606625462367305,-101.0,-92.0,-82.0,-1789.0,-89.65,5.816141332533109,-95.0,-92.0,-79.0,-1793.0,-90.05,6.2407932188144155,-98.0,-89.0,-81.0,-1801.0,,,,,,0.0
0.9652000000000001,0.13108531572987112,0.792,0.9339999999999999,1.328,19.304000000000002,-0.14959999999999998,0.09415221718047855,-0.308,-0.164,0.048,-2.9919999999999995,0.08049999999999999,0.12041075533356645,-0.09,0.11099999999999999,0.254,1.6099999999999997,-93.5,9.35681569766125,-105.0,-95.0,-75.0,-1870.0,-87.95,7.003392035292612,-100.0,-87.0,-79.0,-1759.0,-79.85,7.8120099846326365,-89.0,-77.0,-70.0,-1597.0,,,,,,0.0
0.9668000000000001,0.11235550720814712,0.678,0.955,1.186,19.336000000000002,-0.4514,0.3197981238218886,-1.05,-0.32099999999999995,-0.068,-9.028,0.026200000000000008,0.1387557566373374,-0.25,0.08299999999999999,0.174,0.5240000000000001,-73.4,5.6780278266313555,-83.0,-73.0,-67.0,-1468.0,-85.2,6.852736679604726,-100.0,-85.0,-76.0,-1704.0,-76.75,6.869315832017043,-86.0,-76.0,-69.0,-1535.0,,,,,,0.0
0.3768999999999999,0.4040180565271805,-0.228,0.376,1.66,7.5379999999999985,-0.4088,0.36222004361989685,-1.064,-0.32599999999999996,0.048,-8.176,0.7586,0.3829063070778542,-0.096,0.9,1.214,15.172,-90.38461538461539,2.9752430162790326,-94.0,,-83.0,-1175.0,-75.45,3.8272052466519217,-82.0,-75.0,-70.0,-1509.0,-90.8,7.277362159464101,-101.0,-93.0,-83.0,-1816.0,,,,,,0.0
0.6807000000000001,0.47290983284342897,-0.158,0.838,1.632,13.614,-0.3598,0.20249434560006854,-0.994,-0.35,-0.01,-7.196000000000001,0.5668,0.2091127925307297,0.014,0.585,0.934,11.336,,,,,,0.0,-68.9,2.32163735324878,-75.0,-69.0,-65.0,-1378.0,-93.0,4.0,-101.0,,-91.0,-465.0,,,,,,0.0
0.8571,0.10983892752571833,0.47,0.879,1.02,17.142,-0.4462,0.11950380747072453,-0.82,-0.428,-0.276,-8.924,0.25870000000000004,0.06344848303939188,0.114,0.268,0.382,5.174,-102.0,0.0,-102.0,,-102.0,-816.0,-79.15,6.687862139727463,-89.0,-78.0,-69.0,-1583.0,-97.9090909090909,3.058655243865586,-101.0,,-94.0,-1077.0,,,,,,0.0
0.6775,0.23302435495029272,0.104,0.802,0.888,13.549999999999999,-0.6249999999999999,0.22717790385510647,-1.112,-0.538,-0.334,-12.499999999999998,0.2543,0.12062715283052983,-0.016,0.308,0.38,5.086,-96.66666666666667,1.247219128924647,-98.0,,-95.0,-1160.0,-81.3125,5.381899641390575,-88.0,,-73.0,-1301.0,-91.0,4.147288270665544,-99.0,-91.0,-86.0,-1820.0,,,,,,0.0
0.8875,0.1272098659695859,0.572,0.88,1.202,17.75,-0.2566,0.25645982141458334,-0.794,-0.304,0.156,-5.132,0.4346,0.17210124926914389,0.176,0.423,0.972,8.692,-94.0,3.276712087636501,-99.0,,-90.0,-1786.0,-81.4,7.657675887630659,-95.0,-78.0,-73.0,-1628.0,-88.4,3.0066592756745814,-92.0,-89.0,-83.0,-1768.0,,,,,,0.0
0.8667999999999999,0.07790866447321503,0.684,0.859,1.052,17.336,-0.3478,0.202319450374896,-1.05,-0.31,0.016,-6.956,0.37839999999999996,0.09287324695519156,0.168,0.372,0.6,7.568,-92.1,4.334743360338648,-100.0,-90.0,-88.0,-1842.0,-77.6,2.9051678092667896,-81.0,-79.0,-73.0,-1552.0,-90.1,5.384236250388723,-97.0,-93.0,-82.0,-1802.0,,,,,,0.0
0.9349999999999999,0.04842932995613299,0.818,0.939,1.02,18.7,-0.2616,0.04035641212992057,-0.328,-0.253,-0.194,-5.232,0.2911,0.029849455606426056,0.246,0.292,0.344,5.822,-100.44444444444444,0.4969039949999533,-101.0,,-100.0,-904.0,-75.1,2.4879710609249455,-79.0,-75.0,-72.0,-1502.0,-93.94117647058823,3.438032752047637,-98.0,,-90.0,-1597.0,,,,,,0.0
0.9452,0.03154298654217763,0.87,0.943,1.016,18.904,-0.2523,0.027388136117669628,-0.296,-0.249,-0.206,-5.046,0.1592,0.03755742270177761,0.112,0.149,0.238,3.184,-92.0,1.4142135623730951,-94.0,,-91.0,-1104.0,-76.7,8.277076778670112,-93.0,-73.0,-70.0,-1534.0,-93.93333333333334,2.768071932270226,-99.0,,-91.0,-1409.0,,,,,,0.0
0.9436,0.011110355529864887,0.92,0.943,0.96,18.872,-0.2778,0.00965194280961091,-0.304,-0.276,-0.266,-5.556,0.1214,0.009425497334358546,0.102,0.124,0.14,2.428,,,,,,0.0,-71.6,3.8000000000000003,-79.0,-70.0,-69.0,-1432.0,-99.61538461538461,0.4865042554105199,-100.0,,-99.0,-1295.0,,,,,,0.0
0.9423999999999999,0.011516944039110346,0.912,0.945,0.962,18.848,-0.27190000000000003,0.008281907992727272,-0.288,-0.271,-0.256,-5.438000000000001,0.1242,0.008553361912137241,0.11,0.125,0.138,2.484,-96.46666666666667,4.8424052792893,-102.0,,-91.0,-1447.0,-71.9,3.576310948449533,-79.0,-70.0,-69.0,-1438.0,-98.0,0.0,-98.0,,-98.0,-784.0,,,,,,0.0
0.9467999999999999,0.011496086290559914,0.91,0.948,0.962,18.935999999999996,-0.2636,0.008777243302996677,-0.284,-0.264,-0.244,-5.272,0.1253,0.01016415269464209,0.11,0.124,0.146,2.506,-94.1875,4.447172556805054,-102.0,,-91.0,-1507.0,-70.05,0.6689544080129826,-71.0,-70.0,-69.0,-1401.0,-98.0,0.0,-98.0,,-98.0,-392.0,,,,,,0.0
0.9477000000000002,0.009279547402756215,0.928,0.948,0.96,18.954000000000004,-0.2562,0.009119210492142406,-0.272,-0.257,-0.242,-5.124,0.1258,0.009097252332435328,0.098,0.125,0.146,2.516,-92.15384615384616,2.8781979898261087,-102.0,,-91.0,-1198.0,-69.85,0.3570714214271425,-70.0,-70.0,-69.0,-1397.0,-96.0,2.160246899469287,-98.0,,-93.0,-1152.0,,,,,,0.0
0.9643,0.01721946572922633,0.92,0.965,1.0,19.286,-0.2338,0.04067382450667751,-0.346,-0.228,-0.186,-4.676,0.1356,0.024638181751095188,0.082,0.137,0.172,2.7119999999999997,-91.5,1.5,-93.0,,-90.0,-732.0,-74.6,6.406246951218786,-86.0,-74.0,-69.0,-1492.0,-95.33333333333333,5.198290317231447,-102.0,,-90.0,-1430.0,,,,,,0.0
0.46019999999999983,0.30295471608806485,0.088,0.353,0.944,9.203999999999997,-0.44530000000000003,0.48264656841212494,-1.266,-0.42300000000000004,0.31,-8.906,0.582,0.2802184861853336,0.07,0.634,1.016,11.639999999999999,-97.0,3.0,-100.0,,-94.0,-776.0,-71.35,2.006863224038948,-77.0,-70.0,-70.0,-1427.0,-97.29411764705883,4.197544182332065,-103.0,,-90.0,-1654.0,,,,,,0.0
0.37460000000000004,0.42102118711532804,0.034,0.14100000000000001,1.31,7.492000000000001,-0.1592,0.24927206020731646,-0.474,-0.235,0.318,-3.184,0.7975000000000001,0.2552660376940106,0.542,0.631,1.144,15.950000000000001,-101.14285714285714,0.989743318610787,-102.0,,-100.0,-708.0,-72.0,3.63318042491699,-78.0,-70.0,-69.0,-1440.0,-94.53333333333333,2.0612833111653743,-98.0,,-92.0,-1418.0,,,,,,0.0
0.9860000000000001,0.11376994330665721,0.8,0.975,1.212,19.720000000000002,-0.3024,0.06171417989408917,-0.434,-0.307,-0.174,-6.048,0.19360000000000002,0.11844087132404928,0.094,0.14100000000000001,0.48,3.8720000000000003,-94.4,2.8,-100.0,,-93.0,-472.0,-71.75,1.7571283390805579,-78.0,-71.0,-70.0,-1435.0,-97.0,1.0,-98.0,,-96.0,-1552.0,,,,,,0.0
0.9351999999999998,0.027902688042552443,0.866,0.932,1.004,18.703999999999997,-0.3155,0.020754517580517266,-0.346,-0.308,-0.286,-6.31,0.09220000000000002,0.025083062014036487,0.056,0.092,0.142,1.8440000000000003,-96.0,0.0,-96.0,,-96.0,-384.0,-74.15,2.650943228362313,-77.0,-76.0,-70.0,-1483.0,-100.0,1.632993161855452,-102.0,,-98.0,-1200.0,,,,,,0.0
0.9343529411764706,0.01004074743216555,0.91,0.936,0.95,15.884,-0.30847058823529416,0.016051819200762867,-0.336,-0.308,-0.274,-5.244000000000001,0.11211764705882354,0.017736245218863765,0.078,0.11,0.142,1.9060000000000001,,,,,,0.0,-71.76470588235294,1.5157763207911912,-76.0,-72.0,-70.0,-1220.0,-96.4,0.8,-98.0,,-96.0,-482.0,,,,,,0.0
0.9324210526315788,0.010574625983052074,0.896,0.934,0.944,17.715999999999998,-0.308,0.00838545105964398,-0.32,-0.308,-0.292,-5.852,0.1068421052631579,0.005479753719924368,0.092,0.108,0.112,2.0300000000000002,-99.0,0.0,-99.0,,-99.0,-297.0,-75.84210526315789,1.5648493418230007,-79.0,-76.0,-74.0,-1441.0,-96.0,0.0,-96.0,,-96.0,-288.0,,,,,,0.0
0.9351000000000003,0.0051565492337414575,0.924,0.934,0.944,18.702000000000005,-0.3076,0.006437390775772439,-0.32,-0.307,-0.29,-6.152,0.10400000000000002,0.008854377448471465,0.086,0.102,0.126,2.0800000000000005,-99.0,0.0,-99.0,,-99.0,-99.0,-76.25,1.2599603168354152,-79.0,-76.0,-75.0,-1525.0,-99.125,3.018174116912409,-103.0,,-96.0,-793.0,,,,,,0.0
0.9331999999999999,0.014119490075778207,0.896,0.937,0.952,18.663999999999998,-0.3096,0.006311893535223806,-0.324,-0.309,-0.296,-6.192,0.10360000000000003,0.0085463442476886,0.082,0.103,0.116,2.0720000000000005,,,,,,0.0,-79.45,2.376446927663229,-84.0,-79.0,-77.0,-1589.0,-95.88888888888889,2.514157444218836,-103.0,,-95.0,-863.0,,,,,,0.0
0.9328000000000001,0.008908422980528012,0.904,0.934,0.944,18.656000000000002,-0.31550000000000006,0.008363611660042576,-0.328,-0.318,-0.302,-6.310000000000001,0.10510000000000001,0.007334166619323562,0.092,0.104,0.12,2.1020000000000003,-100.0,0.0,-100.0,,-100.0,-400.0,-78.3,0.8426149773176358,-79.0,-79.0,-77.0,-1566.0,-96.0,0.0,-96.0,,-96.0,-384.0,,,,,,0.0
0.9291,0.0118232821162315,0.898,0.933,0.944,18.582,-0.3116,0.009090654541890817,-0.336,-0.308,-0.3,-6.232,0.10420000000000003,0.007068238818828916,0.094,0.102,0.124,2.0840000000000005,-98.0,0.0,-98.0,,-98.0,-392.0,-76.95,1.243985530462473,-79.0,-76.0,-76.0,-1539.0,-96.0,0.0,-96.0,,-96.0,-384.0,,,,,,0.0
0.9336000000000002,0.005238320341483488,0.926,0.934,0.946,18.672000000000004,-0.3095,0.007207634840916963,-0.322,-0.307,-0.296,-6.1899999999999995,0.1065,0.0065688659599659974,0.094,0.107,0.12,2.13,,,,,,0.0,-77.0,0.6324555320336759,-78.0,-77.0,-76.0,-1540.0,-95.0,0.0,-95.0,,-95.0,-380.0,,,,,,0.0
0.9356000000000002,0.006248199740725285,0.926,0.934,0.948,18.712000000000003,-0.30500000000000005,0.006797058187186578,-0.322,-0.305,-0.296,-6.1000000000000005,0.1034,0.008151073548925932,0.092,0.102,0.12,2.068,-98.0,0.0,-98.0,,-98.0,-392.0,-77.7,1.0535653752852738,-79.0,-78.0,-76.0,-1554.0,,,,,,0.0,,,,,,0.0
0.9364000000000001,0.011926441212700431,0.894,0.941,0.946,18.728,-0.3047,0.008631917515824634,-0.32,-0.306,-0.288,-6.094,0.10690000000000002,0.008377947242612595,0.094,0.108,0.124,2.1380000000000003,,,,,,0.0,-76.3,0.5567764362830021,-78.0,-76.0,-76.0,-1526.0,-98.42857142857143,0.4948716593053935,-99.0,,-98.0,-689.0,,,,,,0.0
0.9343999999999998,0.014921125962875563,0.894,0.939,0.952,18.687999999999995,-0.30439999999999995,0.018282231811242305,-0.344,-0.302,-0.274,-6.087999999999999,0.1004,0.015067846561469887,0.068,0.102,0.126,2.008,-99.0,0.0,-99.0,,-99.0,-396.0,-78.3,4.063249930782008,-86.0,-78.0,-75.0,-1566.0,-97.22222222222223,0.628539361054709,-99.0,,-97.0,-875.0,,,,,,0.0
0.93,0.013431306712304627,0.894,0.932,0.946,18.6,-0.3096,0.006280127387243038,-0.32,-0.312,-0.292,-6.192,0.09410000000000002,0.006464518543557594,0.08,0.093,0.108,1.8820000000000003,,,,,,0.0,-78.4,0.4898979485566356,-79.0,-78.0,-78.0,-1568.0,-98.33333333333333,0.4714045207910317,-99.0,,-98.0,-1180.0,,,,,,0.0
0.9360000000000002,0.012247448713915867,0.892,0.936,0.952,18.720000000000002,-0.3012,0.00904212364436586,-0.322,-0.302,-0.286,-6.024,0.1024,0.01747684181996278,0.07,0.1,0.142,2.048,-100.0,1.0,-101.0,,-99.0,-800.0,-77.4,1.2,-79.0,-78.0,-76.0,-1548.0,-99.0,0.0,-99.0,,-99.0,-297.0,,,,,,0.0
0.9461999999999999,0.09582045710598547,0.78,0.945,1.184,18.924,-0.303,0.04234855369431169,-0.354,-0.316,-0.178,-6.06,0.0979,0.058789369787402894,0.008,0.076,0.236,1.958,-94.0,0.0,-94.0,,-94.0,-376.0,-75.1,2.4474476501040834,-78.0,-76.0,-71.0,-1502.0,-95.625,1.6153559979150107,-99.0,,-93.0,-1530.0,,,,,,0.0
0.9372999999999999,0.13969291320607496,0.808,0.901,1.382,18.746,-0.3043,0.07054721823006205,-0.43,-0.306,-0.186,-6.086,0.1701,0.043485514829653335,0.112,0.158,0.262,3.402,-99.14285714285714,4.453844933748542,-103.0,,-94.0,-694.0,-76.95,2.011839953873071,-80.0,-77.0,-74.0,-1539.0,-96.6923076923077,5.593741219291643,-104.0,,-90.0,-1257.0,,,,,,0.0
0.5264000000000001,0.23865003666456877,0.166,0.479,0.984,10.528000000000002,-0.808,0.20509119922610036,-1.178,-0.748,-0.498,-16.16,0.471,0.16661512536381565,0.198,0.488,0.752,9.42,-101.2,3.6,-103.0,,-94.0,-506.0,-76.7,1.8193405398660252,-79.0,-77.0,-74.0,-1534.0,-100.0,0.0,-100.0,,-100.0,-400.0,,,,,,0.0
-0.22010000000000002,0.1338095288086764,-0.464,-0.21000000000000002,0.038,-4.402,0.0372,0.3099396070204646,-0.658,0.16999999999999998,0.496,0.7439999999999999,0.8827999999999999,0.07131171011832488,0.78,0.881,1.052,17.656,-101.0,0.0,-101.0,,-101.0,-404.0,-70.75,2.2107690969434146,-75.0,-70.0,-68.0,-1415.0,-100.0,0.0,-100.0,,-100.0,-400.0,,,,,,0.0
-0.36312500000000003,0.1291161662031521,-0.54,-0.396,-0.074,-5.8100000000000005,0.2575,0.6387611055786037,-1.04,0.571,0.828,4.12,0.76875,0.19549792198384103,0.492,0.716,1.182,12.3,-103.0,0.0,-103.0,,-103.0,-309.0,-69.6875,2.0223362109204297,-73.0,-70.0,-67.0,-1115.0,-101.5,2.5,-104.0,,-99.0,-812.0,,,,,,0.0
-0.1881,0.05885057348913433,-0.25,-0.20500000000000002,-0.046,-3.762,-0.42800000000000005,0.20728724032125084,-0.746,-0.483,0.088,-8.56,0.8968000000000002,0.22421810810012646,0.496,0.872,1.336,17.936000000000003,-103.0,0.0,-103.0,,-103.0,-103.0,-73.45,4.811184885243967,-84.0,-71.0,-70.0,-1469.0,-98.0,0.0,-98.0,,-98.0,-392.0,,,,,,0.0
-0.3579,0.21842937073571403,-0.88,-0.246,-0.178,-7.158,-0.40169999999999995,0.3759288629514898,-1.07,-0.533,0.456,-8.033999999999999,0.8396000000000001,0.13104594614103862,0.56,0.853,1.026,16.792,,,,,,0.0,-71.45,4.631144566951025,-84.0,-70.0,-67.0,-1429.0,-104.0,0.0,-104.0,,-104.0,-416.0,,,,,,0.0
-0.4121,0.39467326993349827,-1.05,-0.529,0.708,-8.242,0.16839999999999997,0.5877110174226786,-0.936,0.28500000000000003,1.694,3.3679999999999994,0.784,0.25692722705077403,0.292,0.738,1.506,15.680000000000001,-104.0,0.0,-104.0,,-104.0,-416.0,-71.8,2.4819347291981715,-75.0,-73.0,-67.0,-1436.0,-102.0,0.0,-102.0,,-102.0,-408.0,,,,,,0.0
-0.3164,0.12931140707609673,-0.494,-0.332,-0.026,-6.328,0.1295,0.24870936854087347,-0.228,0.14700000000000002,0.55,2.5900000000000003,0.9094000000000001,0.14917653971050543,0.632,0.935,1.12,18.188000000000002,,,,,,0.0,-76.15,4.362052269287932,-84.0,-75.0,-70.0,-1523.0,,,,,,0.0,,,,,,0.0
0.5279,0.29896252273487395,0.006,0.538,1.016,10.558,-0.5048,0.16285625563668105,-0.77,-0.542,-0.226,-10.096,0.6843,0.2023613352397142,0.416,0.672,1.052,13.686,,,,,,0.0,-79.25,2.930443652418521,-84.0,-80.0,-75.0,-1585.0,,,,,,0.0,,,,,,0.0
0.9615999999999999,0.04979531437126724,0.902,0.952,1.062,14.423999999999998,-0.09906666666666666,0.10090224091774287,-0.25,-0.084,0.098,-1.486,0.16106666666666666,0.11769535061146451,0.038,0.118,0.418,2.416,,,,,,0.0,-77.0,3.03315017762062,-83.0,-76.0,-73.0,-1155.0,,,,,,0.0,,,,,,0.0
0.9545,0.033159463204340316,0.888,0.952,1.03,19.09,-0.23830000000000004,0.027765266071118427,-0.288,-0.241,-0.176,-4.766000000000001,0.10669999999999999,0.02643690602169626,0.06,0.112,0.15,2.134,,,,,,0.0,-72.4,3.104834939252004,-80.0,-73.0,-69.0,-1448.0,,,,,,0.0,,,,,,0.0
0.9452999999999998,0.01203785695213229,0.902,0.944,0.962,18.905999999999995,-0.27420000000000005,0.014393053880257653,-0.308,-0.276,-0.248,-5.484000000000001,0.12250000000000001,0.0077427385336197455,0.108,0.124,0.14,2.45,,,,,,0.0,-74.0,4.09878030638384,-86.0,-72.0,-72.0,-1480.0,,,,,,0.0,,,,,,0.0
0.9492999999999997,0.010262066068779701,0.93,0.95,0.972,18.985999999999994,-0.26739999999999997,0.00751265598839718,-0.282,-0.266,-0.25,-5.348,0.12279999999999999,0.00908625335328044,0.098,0.122,0.136,2.456,,,,,,0.0,-73.6,4.1521078984053394,-86.0,-72.0,-72.0,-1472.0,,,,,,0.0,,,,,,0.0
0.9479000000000001,0.007306846104852608,0.93,0.95,0.958,18.958000000000002,-0.255,0.006465291950097852,-0.266,-0.255,-0.242,-5.1000000000000005,0.12880000000000003,0.005418486873657631,0.12,0.129,0.14,2.5760000000000005,,,,,,0.0,-76.1,6.503076195155644,-89.0,-73.0,-72.0,-1522.0,,,,,,0.0,,,,,,0.0
0.9512499999999999,0.008212033852828406,0.926,0.952,0.962,15.219999999999999,-0.25675000000000003,0.006199798383818628,-0.266,-0.258,-0.248,-4.1080000000000005,0.130125,0.005543859215384177,0.118,0.129,0.14,2.082,,,,,,0.0,-76.5,1.8027756377319946,-79.0,-77.0,-74.0,-1224.0,,,,,,0.0,,,,,,0.0
0.9465,0.009733961166965876,0.92,0.952,0.958,11.358,-0.25683333333333336,0.008811293258590877,-0.272,-0.254,-0.242,-3.0820000000000003,0.12649999999999997,0.008645808232895291,0.108,0.128,0.142,1.5179999999999998,,,,,,0.0,-84.5,9.7082439194738,-98.0,-79.0,-74.0,-1014.0,,,,,,0.0,,,,,,0.0
0.9521,0.00633955834423819,0.942,0.952,0.966,19.041999999999998,-0.24549999999999997,0.0074799732619843,-0.258,-0.244,-0.232,-4.909999999999999,0.12110000000000001,0.007835177087979572,0.11,0.12,0.14,2.422,,,,,,0.0,-72.6,0.9165151389911679,-74.0,-72.0,-72.0,-1452.0,,,,,,0.0,,,,,,0.0
0.9515,0.011728171212938511,0.914,0.956,0.966,19.03,-0.24969999999999998,0.010959470790143113,-0.272,-0.25,-0.234,-4.994,0.1222,0.007096477999684071,0.112,0.12,0.14,2.444,,,,,,0.0,-72.7,0.45825756949558394,-73.0,-73.0,-72.0,-1454.0,,,,,,0.0,,,,,,0.0
0.9527999999999999,0.005153639490690055,0.94,0.952,0.96,19.055999999999997,-0.24379999999999996,0.0069828361000384385,-0.264,-0.242,-0.234,-4.8759999999999994,0.11599999999999999,0.007797435475847171,0.098,0.11599999999999999,0.128,2.32,,,,,,0.0,-73.7,2.685144316419511,-79.0,-72.5,-72.0,-1474.0,,,,,,0.0,,,,,,0.0
0.9543000000000001,0.008420807562223465,0.934,0.956,0.966,19.086000000000002,-0.24679999999999996,0.008109253973085323,-0.262,-0.246,-0.232,-4.935999999999999,0.1197,0.008491760712596653,0.096,0.12,0.134,2.394,,,,,,0.0,-72.5,0.5,-73.0,-72.5,-72.0,-1450.0,,,,,,0.0,,,,,,0.0
0.9520000000000002,0.043067389054828945,0.886,0.949,1.048,19.040000000000003,-0.2448,0.017893015397076033,-0.292,-0.242,-0.204,-4.896,0.10500000000000002,0.02940408134936373,0.056,0.095,0.156,2.1000000000000005,,,,,,0.0,-79.1,9.470480452437458,-94.0,-74.5,-70.0,-1582.0,,,,,,0.0,,,,,,0.0
0.9554,0.023538054295119626,0.92,0.954,1.004,19.108,-0.2375,0.05568796997557013,-0.312,-0.255,-0.148,-4.75,0.15680000000000002,0.02577130186855138,0.11,0.152,0.214,3.1360000000000006,,,,,,0.0,-77.1,6.155485358604957,-94.0,-74.0,-73.0,-1542.0,,,,,,0.0,,,,,,0.0
0.9502,0.027069540077363695,0.924,0.944,1.032,19.004,-0.21880000000000002,0.024999199987199593,-0.264,-0.22,-0.174,-4.376,0.18550000000000003,0.015256146302392356,0.164,0.182,0.224,3.7100000000000004,,,,,,0.0,-73.9,3.207802986469088,-77.0,-74.5,-69.0,-1478.0,,,,,,0.0,,,,,,0.0
0.9418,0.05306938853991065,0.816,0.941,1.038,18.836,0.14850000000000002,0.18881618045072301,-0.154,0.155,0.456,2.9700000000000006,0.0753,0.054667266256874424,-0.008,0.095,0.158,1.5060000000000002,,,,,,0.0,-72.1,4.592385001282014,-81.0,-70.0,-69.0,-1442.0,,,,,,0.0,,,,,,0.0
0.7475,0.04962610200287748,0.656,0.748,0.848,14.950000000000001,0.6182,0.054434915265847525,0.472,0.638,0.672,12.363999999999999,-0.04300000000000002,0.011738824472663351,-0.066,-0.044,-0.024,-0.8600000000000003,,,,,,0.0,-69.4,2.0099751242241783,-73.0,-68.5,-67.0,-1388.0,,,,,,0.0,,,,,,0.0
0.6983999999999999,0.010229369482035521,0.678,0.7,0.718,13.967999999999998,0.6708000000000002,0.0116516093309036,0.64,0.673,0.688,13.416000000000004,-0.028800000000000003,0.01182201336490532,-0.052,-0.026,-0.002,-0.5760000000000001,,,,,,0.0,-68.2,0.8717797887081347,-69.0,-68.5,-67.0,-1364.0,,,,,,0.0,,,,,,0.0
0.7346999999999999,0.02265634568945312,0.688,0.732,0.782,14.693999999999999,0.6312000000000001,0.023819319889535073,0.588,0.633,0.672,12.624000000000002,-0.022300000000000004,0.01465980900284857,-0.048,-0.026,0.006,-0.44600000000000006,,,,,,0.0,-72.4,2.1071307505705477,-75.0,-72.5,-69.0,-1448.0,,,,,,0.0,,,,,,0.0
0.8476000000000001,0.06899449253382477,0.742,0.839,0.944,16.952,0.48340000000000005,0.11372616233743227,0.232,0.522,0.608,9.668000000000001,0.021200000000000004,0.030824665448306168,-0.026,0.015,0.08,0.42400000000000004,,,,,,0.0,-72.4,1.6852299546352716,-75.0,-73.0,-70.0,-1448.0,,,,,,0.0,,,,,,0.0
0.9395999999999999,0.02686708022841334,0.884,0.94,0.976,18.791999999999998,-0.16350000000000003,0.13446914144144745,-0.288,-0.22,0.158,-3.2700000000000005,0.1116,0.014472042012100438,0.088,0.111,0.134,2.232,,,,,,0.0,-73.3,4.243819034784589,-81.0,-72.5,-69.0,-1466.0,,,,,,0.0,,,,,,0.0
0.9464999999999998,0.016271140095272953,0.904,0.948,0.972,18.929999999999996,-0.25139999999999996,0.022082572313931174,-0.29,-0.247,-0.218,-5.028,0.10729999999999999,0.01043599540053559,0.086,0.109,0.128,2.146,,,,,,0.0,-72.9,0.7,-74.0,-73.0,-72.0,-1458.0,,,,,,0.0,,,,,,0.0
0.9558,0.0109890854942529,0.928,0.958,0.972,19.116,-0.21710000000000002,0.009517877914745494,-0.232,-0.218,-0.2,-4.3420000000000005,0.10200000000000002,0.005692099788303082,0.094,0.102,0.112,2.0400000000000005,,,,,,0.0,-72.3,0.45825756949558394,-73.0,-72.0,-72.0,-1446.0,,,,,,0.0,,,,,,0.0
0.9586000000000002,0.008924124606929235,0.934,0.96,0.972,19.172000000000004,-0.2198,0.006539113089708732,-0.228,-0.219,-0.204,-4.396,0.10630000000000002,0.008228608630868283,0.096,0.103,0.126,2.1260000000000003,,,,,,0.0,-71.8,0.39999999999999997,-72.0,-72.0,-71.0,-1436.0,,,,,,0.0,,,,,,0.0
0.9610000000000001,0.004919349550499542,0.956,0.96,0.978,19.220000000000002,-0.20790000000000003,0.011670047129296436,-0.226,-0.208,-0.186,-4.158,0.10370000000000001,0.005030904491242106,0.096,0.103,0.112,2.0740000000000003,,,,,,0.0,-72.1,0.5385164807134504,-73.0,-72.0,-71.0,-1442.0,,,,,,0.0,,,,,,0.0
0.9105000000000001,0.03437949970549309,0.85,0.916,0.96,18.21,-0.1473,0.03034649897434628,-0.194,-0.149,-0.098,-2.9459999999999997,0.13740000000000002,0.032821334524970186,0.096,0.126,0.224,2.748,,,,,,0.0,-71.1,1.8681541692269403,-74.0,-71.0,-68.0,-1422.0,,,,,,0.0,,,,,,0.0
1.0077,0.19943748393920335,0.656,0.96,1.398,20.154,-0.1759,0.18691974213549514,-0.434,-0.21000000000000002,0.312,-3.518,0.28490000000000004,0.06284417236307596,0.19,0.274,0.4,5.698000000000001,,,,,,0.0,-73.7,1.7916472867168916,-77.0,-73.0,-71.0,-1474.0,,,,,,0.0,,,,,,0.0
0.9743,0.053040644792460824,0.888,0.975,1.084,19.486,0.022,0.11019618868182328,-0.11,-0.011,0.198,0.44,0.1413,0.03279801823281401,0.076,0.145,0.188,2.826,,,,,,0.0,-72.8,1.077032961426901,-74.0,-72.5,-71.0,-1456.0,,,,,,0.0,,,,,,0.0
0.9725999999999999,0.013343163043296755,0.944,0.976,0.99,19.451999999999998,-0.10869999999999999,0.016748432762500497,-0.136,-0.11,-0.072,-2.174,0.11389999999999997,0.010741973747873338,0.09,0.114,0.142,2.2779999999999996,,,,,,0.0,-72.4,0.4898979485566356,-73.0,-72.0,-72.0,-1448.0,,,,,,0.0,,,,,,0.0
0.9714000000000003,0.013477388471065152,0.934,0.972,0.992,19.428000000000004,-0.09470000000000002,0.014849579118614778,-0.13,-0.095,-0.064,-1.8940000000000003,0.1335,0.00931396800509858,0.112,0.134,0.152,2.67,,,,,,0.0,-72.5,0.5,-73.0,-72.5,-72.0,-1450.0,,,,,,0.0,,,,,,0.0
0.9289,0.08938562524254108,0.626,0.961,0.998,18.578,-0.263,0.2824014872482084,-0.98,-0.134,-0.01,-5.26,0.20550000000000002,0.11040629511037856,0.016,0.158,0.492,4.11,,,,,,0.0,-70.9,1.7578395831246945,-72.0,-72.0,-67.0,-1418.0,,,,,,0.0,,,,,,0.0
1.0322,0.38540882190214587,0.29,1.193,1.57,20.644000000000002,-0.2098,0.3662430340634481,-1.108,-0.227,0.754,-4.196,0.2191,0.3987462727098524,-0.606,0.275,0.898,4.382,-102.0,0.0,-102.0,,-102.0,-204.0,-65.2,1.5362291495737215,-67.0,-65.5,-63.0,-1304.0,-99.66666666666667,1.8856180831641267,-101.0,,-97.0,-598.0,,,,,,0.0
0.8429,0.14190345309399627,0.56,0.869,1.054,16.858,-0.3694,0.073935377188461,-0.516,-0.374,-0.242,-7.388,0.2674000000000001,0.16312093673100334,0.096,0.22699999999999998,0.584,5.348000000000002,-102.0,0.0,-102.0,,-102.0,-204.0,-69.8,2.6,-75.0,-69.5,-65.0,-1396.0,-97.0,0.0,-97.0,,-97.0,-194.0,,,,,,0.0
0.9560999999999998,0.024847333861000066,0.912,0.951,1.026,19.121999999999996,-0.2454,0.07428081851999209,-0.372,-0.25,-0.026,-4.908,0.11009999999999998,0.040647140120800625,0.04,0.11,0.236,2.2019999999999995,,,,,,0.0,-72.6,0.9165151389911679,-75.0,-72.0,-72.0,-1452.0,,,,,,0.0,,,,,,0.0
0.9567000000000002,0.010941206514822742,0.928,0.96,0.974,19.134000000000004,-0.2151,0.018498378307300344,-0.242,-0.213,-0.18,-4.3020000000000005,0.09890000000000002,0.00891010662113535,0.078,0.097,0.112,1.9780000000000004,,,,,,0.0,-72.2,0.8717797887081347,-73.0,-72.5,-71.0,-1444.0,,,,,,0.0,,,,,,0.0
0.9637999999999998,0.008600000000000009,0.94,0.964,0.978,19.275999999999996,-0.1926,0.010160708636704433,-0.208,-0.194,-0.172,-3.852,0.10080000000000003,0.0076785415281809865,0.088,0.098,0.12,2.0160000000000005,,,,,,0.0,-71.5,0.5,-72.0,-71.5,-71.0,-1430.0,,,,,,0.0,,,,,,0.0
0.9657,0.006042350536008323,0.956,0.966,0.978,19.314,-0.1871,0.008160269603389343,-0.202,-0.19,-0.17,-3.742,0.10080000000000003,0.00567097875150313,0.088,0.102,0.112,2.0160000000000005,,,,,,0.0,-72.2,0.39999999999999997,-73.0,-72.0,-72.0,-1444.0,,,,,,0.0,,,,,,0.0
0.9593000000000002,0.06745746808174763,0.792,0.966,1.122,19.186000000000003,-0.227,0.040201990000496235,-0.298,-0.209,-0.178,-4.54,0.1343,0.031357774155701804,0.056,0.134,0.188,2.686,,,,,,0.0,-70.2,1.8330302779823358,-72.0,-70.5,-68.0,-1404.0,,,,,,0.0,,,,,,0.0
0.9748000000000001,0.1241602190719717,0.838,0.9470000000000001,1.308,19.496000000000002,-0.2542,0.07005968883744773,-0.354,-0.283,-0.104,-5.084,0.2346,0.03430510166141473,0.158,0.23,0.3,4.692,,,,,,0.0,-66.1,2.0223748416156684,-69.0,-66.0,-63.0,-1322.0,-102.0,0.0,-102.0,,-102.0,-408.0,,,,,,0.0
0.8265000000000002,0.19960648787050986,0.48,0.902,1.056,16.530000000000005,-0.37840000000000007,0.2735906431148551,-0.756,-0.45,0.012,-7.568000000000001,0.09749999999999999,0.19237450454777005,-0.18,0.074,0.416,1.9499999999999997,,,,,,0.0,-70.2,3.124099870362662,-77.0,-71.0,-65.0,-1404.0,-98.0,0.0,-98.0,,-98.0,-392.0,,,,,,0.0
0.6105999999999999,0.14610968482616066,0.348,0.608,0.83,12.211999999999998,-0.7039000000000001,0.11464985826419498,-0.83,-0.732,-0.368,-14.078000000000001,0.421,0.06387644323222763,0.326,0.42,0.54,8.42,,,,,,0.0,-73.1,1.9723082923316018,-77.0,-72.0,-71.0,-1462.0,-103.0,0.0,-103.0,,-103.0,-206.0,,,,,,0.0
0.8309999999999998,0.09320836872298537,0.64,0.862,0.95,16.619999999999997,-0.4875,0.16806055456293129,-1.124,-0.422,-0.398,-9.75,0.3398,0.08905256874453427,0.264,0.289,0.51,6.795999999999999,,,,,,0.0,-75.8,0.39999999999999997,-76.0,-76.0,-75.0,-1516.0,-103.0,0.0,-103.0,,-103.0,-206.0,,,,,,0.0
0.8824,0.01309350984266634,0.844,0.884,0.904,17.648,-0.39520000000000005,0.011052601503718474,-0.416,-0.395,-0.378,-7.904000000000001,0.267,0.010592450141492285,0.246,0.269,0.284,5.34,,,,,,0.0,-76.0,0.0,-76.0,-76.0,-76.0,-1520.0,,,,,,0.0,,,,,,0.0
0.8929,0.09844892076605004,0.654,0.885,1.19,17.858,-0.33509999999999995,0.12771135423289504,-0.616,-0.368,0.062,-6.701999999999999,0.33890000000000003,0.0735866156308333,0.23,0.33,0.486,6.7780000000000005,-104.0,0.0,-104.0,,-104.0,-416.0,-76.8,1.5362291495737217,-79.0,-76.0,-74.0,-1536.0,,,,,,0.0,,,,,,0.0
0.8816,0.18318144010788867,0.526,0.881,1.33,17.632,0.10600000000000002,0.2785203762743401,-0.4,0.106,0.518,2.1200000000000006,-0.16430000000000003,0.19800936846523196,-0.484,-0.217,0.334,-3.2860000000000005,,,,,,0.0,-73.8,5.192301994298868,-84.0,-71.0,-70.0,-1476.0,,,,,,0.0,,,,,,0.0
0.5888,0.33084824315688904,0.028,0.5680000000000001,1.276,11.776,-0.7422000000000001,0.26888428738027814,-1.22,-0.673,-0.208,-14.844000000000001,0.1078,0.1394760194442041,-0.136,0.108,0.402,2.156,,,,,,0.0,-69.0,1.7320508075688772,-71.0,-69.5,-66.0,-1380.0,,,,,,0.0,,,,,,0.0
-0.09519999999999998,0.12366632524660867,-0.336,-0.065,0.092,-1.9039999999999997,-0.8752000000000001,0.19024973061741773,-1.338,-0.877,-0.584,-17.504,0.3792,0.24479493458811602,-0.19,0.46299999999999997,0.662,7.584,,,,,,0.0,-71.2,1.8867962264113207,-74.0,-71.5,-68.0,-1424.0,,,,,,0.0,,,,,,0.0
-0.1743,0.04409659850827499,-0.282,-0.163,-0.088,-3.486,-0.7739,0.046722478530146494,-0.858,-0.754,-0.712,-15.478,0.6343000000000001,0.06255645450311262,0.48,0.664,0.7,12.686000000000002,,,,,,0.0,-76.4,1.2,-78.0,-77.0,-74.0,-1528.0,,,,,,0.0,,,,,,0.0
-0.1638,0.005582114294781144,-0.176,-0.162,-0.154,-3.2760000000000002,-0.7426999999999999,0.00805667425182377,-0.754,-0.744,-0.726,-14.854,0.6866999999999999,0.008155366331440874,0.672,0.688,0.702,13.733999999999998,,,,,,0.0,-77.7,1.1874342087037917,-80.0,-77.0,-77.0,-1554.0,-104.0,0.0,-104.0,,-104.0,-416.0,,,,,,0.0
-0.1628,0.005192301994298869,-0.176,-0.162,-0.154,-3.256,-0.7384,0.005425863986500219,-0.746,-0.738,-0.728,-14.767999999999999,0.6915999999999999,0.005817215828899574,0.68,0.691,0.704,13.831999999999997,,,,,,0.0,-77.4,0.4898979485566356,-78.0,-77.0,-77.0,-1548.0,,,,,,0.0,,,,,,0.0
-0.16620000000000001,0.005653317610041025,-0.178,-0.168,-0.158,-3.3240000000000003,-0.7344999999999999,0.006476881965884516,-0.744,-0.737,-0.724,-14.689999999999998,0.6929000000000001,0.012968808734806738,0.652,0.696,0.71,13.858,,,,,,0.0,-77.7,1.1874342087037917,-80.0,-77.0,-77.0,-1554.0,,,,,,0.0,,,,,,0.0
-0.1815,0.04044193368275063,-0.328,-0.168,-0.158,-3.63,-0.7217,0.05327766886792251,-0.802,-0.735,-0.562,-14.434,0.7626,0.1062056495672429,0.686,0.702,1.03,15.251999999999999,,,,,,0.0,-76.8,2.315167380558045,-78.0,-77.5,-70.0,-1536.0,,,,,,0.0,,,,,,0.0
-0.4168,0.26416843111923877,-0.83,-0.372,0.102,-6.252,-0.30546666666666666,0.3942570847668928,-0.928,-0.386,0.736,-4.582,-0.1656,0.6824040640754323,-0.994,-0.272,0.988,-2.484,,,,,,0.0,-71.73333333333333,2.2939534045447,-75.0,-72.0,-69.0,-1076.0,,,,,,0.0,,,,,,0.0
-0.0455,0.15151089069766568,-0.242,-0.098,0.366,-0.91,0.5979,0.11949807529830765,0.406,0.617,0.876,11.958,-0.6708000000000001,0.1296416599708597,-0.916,-0.6699999999999999,-0.382,-13.416,,,,,,0.0,-71.6,0.4898979485566356,-72.0,-72.0,-71.0,-1432.0,,,,,,0.0,,,,,,0.0
-0.04840000000000001,0.03848947908195174,-0.122,-0.048,0.024,-0.9680000000000002,0.379,0.050316995140807036,0.326,0.37,0.568,7.58,-0.8067,0.05032404991651605,-0.904,-0.812,-0.714,-16.134,,,,,,0.0,-72.65,0.47696960070847283,-73.0,-73.0,-72.0,-1453.0,,,,,,0.0,,,,,,0.0
-0.08270000000000002,0.00783007024234138,-0.098,-0.082,-0.07,-1.6540000000000004,0.2622000000000001,0.028683793333518483,0.224,0.258,0.306,5.2440000000000015,-0.8442999999999999,0.012794920867281685,-0.866,-0.845,-0.814,-16.886,,,,,,0.0,-73.65,0.47696960070847283,-74.0,-74.0,-73.0,-1473.0,,,,,,0.0,,,,,,0.0
-0.08700000000000001,0.006618156843109719,-0.098,-0.086,-0.076,-1.7400000000000002,0.2264,0.007914543574963752,0.206,0.226,0.24,4.528,-0.8535999999999999,0.008935323161475477,-0.866,-0.856,-0.838,-17.072,,,,,,0.0,-74.45,0.4974937185533099,-75.0,-74.0,-74.0,-1489.0,,,,,,0.0,,,,,,0.0
-0.10879999999999998,0.01757725803417587,-0.138,-0.115,-0.08,-2.1759999999999997,0.1894,0.029176017548664855,0.156,0.184,0.29,3.7880000000000003,-0.8590000000000002,0.015703502793962897,-0.9,-0.86,-0.816,-17.180000000000003,,,,,,0.0,-75.9,0.7681145747868607,-77.0,-76.0,-75.0,-1518.0,,,,,,0.0,,,,,,0.0
-0.2703,0.1930836865196022,-0.696,-0.132,-0.112,-5.406,0.05550000000000001,0.15443558527748713,-0.32,0.144,0.168,1.11,-0.8167,0.07630275224393941,-0.936,-0.85,-0.666,-16.334,,,,,,0.0,-73.9,2.718455443813637,-77.0,-75.0,-71.0,-1478.0,,,,,,0.0,,,,,,0.0
-0.462,0.06619667665374146,-0.606,-0.47,-0.328,-9.24,-0.07740000000000001,0.07792072894936238,-0.35,-0.06,0.004,-1.5480000000000003,-0.7462,0.04661716422091761,-0.89,-0.738,-0.666,-14.924,,,,,,0.0,-72.25,0.9420721840708386,-74.0,-72.0,-71.0,-1445.0,,,,,,0.0,,,,,,0.0
-0.3779,0.006617401302626287,-0.392,-0.378,-0.37,-7.558,-0.11880000000000002,0.011838918869558995,-0.138,-0.12,-0.09,-2.3760000000000003,-0.7975000000000001,0.011504347004502256,-0.814,-0.8,-0.772,-15.950000000000001,,,,,,0.0,-72.25,0.4330127018922193,-73.0,-72.0,-72.0,-1445.0,,,,,,0.0,,,,,,0.0
-0.3753000000000001,0.006042350536008324,-0.386,-0.374,-0.366,-7.506000000000001,-0.11859999999999997,0.004943682837723309,-0.132,-0.12,-0.11,-2.3719999999999994,-0.7944000000000001,0.008114185110040325,-0.804,-0.795,-0.776,-15.888000000000002,,,,,,0.0,-72.55,0.4974937185533099,-73.0,-73.0,-72.0,-1451.0,,,,,,0.0,,,,,,0.0
-0.3745,0.006808083430746136,-0.384,-0.376,-0.36,-7.49,-0.1157,0.005736723803705386,-0.128,-0.114,-0.104,-2.314,-0.7959,0.006796322535018484,-0.804,-0.799,-0.776,-15.918000000000001,,,,,,0.0,-72.45,0.4974937185533099,-73.0,-72.0,-72.0,-1449.0,,,,,,0.0,,,,,,0.0
-0.37629999999999997,0.005070502933634892,-0.386,-0.378,-0.368,-7.526,-0.11639999999999999,0.004363484845854284,-0.124,-0.116,-0.106,-2.328,-0.7998000000000001,0.006225752966509344,-0.816,-0.8,-0.788,-15.996000000000002,,,,,,0.0,-72.6,0.4898979485566356,-73.0,-73.0,-72.0,-1452.0,,,,,,0.0,,,,,,0.0
-0.3753,0.005736723803705392,-0.386,-0.374,-0.368,-7.506,-0.11709999999999998,0.0065566759871142025,-0.128,-0.115,-0.104,-2.3419999999999996,-0.7966000000000001,0.006296030495478883,-0.804,-0.798,-0.784,-15.932000000000002,,,,,,0.0,-72.8,0.39999999999999997,-73.0,-73.0,-72.0,-1456.0,,,,,,0.0,,,,,,0.0
-0.3733000000000001,0.0069935684739623515,-0.386,-0.374,-0.356,-7.466000000000001,-0.11789999999999998,0.005881326381013044,-0.128,-0.116,-0.106,-2.3579999999999997,-0.7962000000000001,0.00758683069535627,-0.808,-0.797,-0.782,-15.924000000000003,,,,,,0.0,-73.0,0.0,-73.0,-73.0,-73.0,-1460.0,,,,,,0.0,,,,,,0.0
-0.46609999999999996,0.11873074580747818,-0.754,-0.40700000000000003,-0.36,-9.322,0.020500000000000004,0.17763206354709724,-0.128,-0.064,0.44,0.4100000000000001,-0.8421,0.07915674323770527,-1.048,-0.806,-0.778,-16.842,,,,,,0.0,-72.05,0.8645808232895291,-73.0,-72.0,-70.0,-1441.0,,,,,,0.0,,,,,,0.0
0.1901,0.5794633638117254,-1.256,0.197,1.086,3.802,-0.7673,0.6970392456669854,-1.836,-0.8320000000000001,1.118,-15.346,0.4027000000000001,0.6101079494646828,-0.288,0.151,1.916,8.054000000000002,,,,,,0.0,-74.8,5.706137047074843,-84.0,-71.0,-70.0,-1496.0,,,,,,0.0,,,,,,0.0
0.835,0.16379194119369855,0.428,0.808,1.064,16.7,-0.41999999999999993,0.223068599314202,-0.814,-0.4,0.062,-8.399999999999999,0.24139999999999998,0.23176721079566023,0.022,0.139,0.838,4.827999999999999,,,,,,0.0,-71.9,1.0908712114635715,-73.0,-72.0,-70.0,-1438.0,,,,,,0.0,,,,,,0.0
0.8185,0.07778142451768287,0.668,0.803,1.01,16.37,-0.40190000000000003,0.12204831010710472,-0.68,-0.39,-0.226,-8.038,0.4803,0.11888359853234592,0.338,0.448,0.882,9.606,,,,,,0.0,-78.05,4.387197283004264,-86.0,-77.0,-72.0,-1561.0,,,,,,0.0,,,,,,0.0
0.8785000000000002,0.015177285659827332,0.846,0.879,0.92,17.570000000000004,-0.34850000000000003,0.03477858536513525,-0.376,-0.356,-0.206,-6.970000000000001,0.3493,0.017381311803198282,0.31,0.347,0.386,6.986,,,,,,0.0,-77.15,1.0136567466356645,-79.0,-77.0,-76.0,-1543.0,,,,,,0.0,,,,,,0.0
0.8661000000000001,0.00917551088495895,0.846,0.865,0.88,17.322000000000003,-0.38410000000000005,0.014999666662962886,-0.42,-0.383,-0.36,-7.682000000000001,0.34109999999999996,0.008330066026148877,0.328,0.34,0.358,6.821999999999999,,,,,,0.0,-74.95,0.8645808232895291,-76.0,-75.0,-74.0,-1499.0,,,,,,0.0,,,,,,0.0
0.8849000000000002,0.04993786138792892,0.814,0.872,1.048,17.698000000000004,-0.3612000000000001,0.04558245276419426,-0.408,-0.378,-0.226,-7.224000000000001,0.28809999999999997,0.07349142807157852,0.108,0.311,0.36,5.762,,,,,,0.0,-76.75,1.6085707942145413,-79.0,-76.0,-75.0,-1535.0,,,,,,0.0,,,,,,0.0
0.9829999999999999,0.18151969590102338,0.624,0.986,1.398,19.659999999999997,0.069,0.17710166571774527,-0.222,0.061,0.358,1.3800000000000001,-0.15120000000000003,0.18591976764185136,-0.49,-0.129,0.078,-3.0240000000000005,,,,,,0.0,-72.25,2.6052830940226053,-78.0,-71.0,-70.0,-1445.0,,,,,,0.0,,,,,,0.0
0.8971,0.13219905445955352,0.574,0.925,1.126,17.942,-0.2375,0.10227780795460957,-0.42,-0.254,-0.072,-4.75,0.11230000000000002,0.06640263548986591,-0.074,0.107,0.224,2.2460000000000004,,,,,,0.0,-73.65,2.8683619018526936,-79.0,-72.0,-71.0,-1473.0,,,,,,0.0,,,,,,0.0
0.9668000000000001,0.04796832288083457,0.866,0.964,1.132,19.336000000000002,-0.1996,0.06255429641519437,-0.378,-0.179,-0.144,-3.992,0.050900000000000015,0.04130605282522162,0.014,0.045,0.224,1.0180000000000002,,,,,,0.0,-72.6,1.5620499351813306,-76.0,-72.0,-71.0,-1452.0,-102.0,0.0,-102.0,,-102.0,-408.0,,,,,,0.0
0.9622105263157895,0.013105157471567083,0.928,0.962,0.984,18.282,-0.1931578947368421,0.013982180983006591,-0.212,-0.2,-0.17,-3.6700000000000004,0.05410526315789475,0.019568757959784844,0.03,0.05,0.126,1.0280000000000002,,,,,,0.0,-72.21052631578948,0.4076824574955176,-73.0,-72.0,-72.0,-1372.0,,,,,,0.0,,,,,,0.0
0.9631764705882352,0.00955624399583635,0.936,0.966,0.978,16.374,-0.19517647058823528,0.00955624399583636,-0.21,-0.194,-0.178,-3.318,0.052941176470588235,0.008653259081615667,0.034,0.056,0.062,0.9,,,,,,0.0,-73.0,0.0,-73.0,-73.0,-73.0,-1241.0,,,,,,0.0,,,,,,0.0
0.9647,0.007410128204019152,0.95,0.964,0.974,19.294,-0.19870000000000004,0.0061081912216301775,-0.208,-0.2,-0.186,-3.9740000000000006,0.04610000000000001,0.00835404093837228,0.032,0.045,0.06,0.9220000000000002,,,,,,0.0,-72.15,0.7262919523166974,-73.0,-72.0,-71.0,-1443.0,-103.0,0.0,-103.0,,-103.0,-412.0,,,,,,0.0
0.9614999999999998,0.007372245248226627,0.944,0.963,0.974,19.229999999999997,-0.20270000000000002,0.005595533933415107,-0.218,-0.201,-0.192,-4.054,0.043500000000000004,0.0072629195231669755,0.032,0.04,0.056,0.8700000000000001,,,,,,0.0,-72.6,0.4898979485566356,-73.0,-73.0,-72.0,-1452.0,-104.0,0.0,-104.0,,-104.0,-416.0,,,,,,0.0
0.9578999999999999,0.012057777573002396,0.918,0.96,0.972,19.157999999999998,-0.21189999999999998,0.010535179163165665,-0.234,-0.211,-0.194,-4.2379999999999995,0.049900000000000014,0.0073613857391118965,0.04,0.047,0.062,0.9980000000000002,,,,,,0.0,-73.1,1.260952021291849,-75.0,-72.0,-72.0,-1462.0,,,,,,0.0,,,,,,0.0
0.9598000000000001,0.008340263784797209,0.936,0.96,0.974,19.196,-0.2193,0.008655056325639949,-0.232,-0.223,-0.2,-4.386,0.05560000000000002,0.007578918128598568,0.04,0.056,0.07,1.1120000000000003,,,,,,0.0,-72.95,0.8645808232895291,-74.0,-73.0,-72.0,-1459.0,,,,,,0.0,,,,,,0.0
0.9670000000000002,0.04756259034156993,0.892,0.961,1.086,19.340000000000003,-0.21460000000000004,0.058760871334587954,-0.356,-0.223,-0.078,-4.292000000000001,0.0017000000000000006,0.05554556687981499,-0.096,-0.018000000000000002,0.126,0.03400000000000001,-100.0,0.0,-100.0,,-100.0,-400.0,-76.65,4.80910594601533,-85.0,-74.0,-72.0,-1533.0,-102.0,0.0,-102.0,,-102.0,-408.0,,,,,,0.0
0.9404,0.05729083696368906,0.792,0.93,1.062,18.808,0.009300000000000006,0.22904521387708587,-0.354,0.003,0.368,0.1860000000000001,0.001599999999999996,0.15182042023390663,-0.194,-0.022000000000000002,0.224,0.03199999999999992,,,,,,0.0,-78.65,4.339066719929529,-85.0,-79.0,-73.0,-1573.0,,,,,,0.0,,,,,,0.0
0.694,0.07127131260191578,0.604,0.676,0.848,13.879999999999999,0.6239,0.09103949692303884,0.368,0.648,0.736,12.478,-0.18580000000000002,0.03517328531712669,-0.238,-0.186,-0.12,-3.716,,,,,,0.0,-76.25,6.876590725061366,-89.0,-72.0,-71.0,-1525.0,,,,,,0.0,,,,,,0.0
0.6323999999999999,0.010725670142233548,0.616,0.632,0.654,12.647999999999998,0.677,0.018989470766716986,0.648,0.672,0.718,13.540000000000001,-0.2145,0.01894069692487581,-0.242,-0.217,-0.184,-4.29,,,,,,0.0,-72.85,0.7262919523166974,-74.0,-73.0,-72.0,-1457.0,,,,,,0.0,,,,,,0.0
0.6363999999999999,0.009951884243699792,0.62,0.636,0.654,12.727999999999998,0.6677000000000001,0.013375724279454927,0.646,0.667,0.69,13.354000000000001,-0.2367,0.009844287683728059,-0.264,-0.233,-0.222,-4.734,,,,,,0.0,-73.85,0.3570714214271425,-74.0,-74.0,-73.0,-1477.0,,,,,,0.0,,,,,,0.0
0.643125,0.013783481962116841,0.622,0.642,0.664,10.29,0.647,0.016370705543744896,0.624,0.646,0.69,10.352,-0.25225000000000003,0.013226394066411308,-0.28,-0.249,-0.232,-4.0360000000000005,,,,,,0.0,-74.0,0.0,-74.0,-74.0,-74.0,-1184.0,,,,,,0.0,,,,,,0.0
0.7116,0.06284457017117707,0.636,0.692,0.834,14.232,0.6091,0.040266487306443804,0.508,0.623,0.672,12.181999999999999,-0.2213,0.03580656364411419,-0.27,-0.228,-0.144,-4.426,-104.0,0.0,-104.0,,-104.0,-416.0,-73.8,1.0770329614269007,-75.0,-74.0,-70.0,-1476.0,,,,,,0.0,,,,,,0.0
0.927,0.0567626637852735,0.806,0.9359999999999999,1.008,14.832,0.081625,0.18844922227220784,-0.114,0.028999999999999998,0.432,1.306,-0.056625,0.06598756985220777,-0.208,-0.032,0.012,-0.906,,,,,,0.0,-73.25,1.984313483298443,-76.0,-73.0,-70.0,-1172.0,,,,,,0.0,,,,,,0.0
0.9721,0.01346811048365731,0.934,0.974,0.992,19.442,-0.12279999999999999,0.01789301539707603,-0.16,-0.116,-0.098,-2.456,0.013900000000000001,0.013747363383572866,-0.012,0.013000000000000001,0.038,0.278,,,,,,0.0,-74.75,1.0428326807307104,-76.0,-74.0,-73.0,-1495.0,,,,,,0.0,,,,,,0.0
0.9724210526315789,0.010106359589640812,0.952,0.974,0.99,18.476,-0.12273684210526317,0.012485115792153882,-0.152,-0.12,-0.104,-2.3320000000000003,-0.011473684210526316,0.007043985273398572,-0.024,-0.01,0.006,-0.218,,,,,,0.0,-73.94736842105263,0.7590634264134716,-75.0,-74.0,-73.0,-1405.0,,,,,,0.0,,,,,,0.0
0.9660000000000002,0.01708800749063506,0.93,0.967,0.99,19.320000000000004,-0.1214,0.019432961688841975,-0.154,-0.122,-0.08,-2.428,-0.0122,0.01812070638799713,-0.052,-0.015,0.03,-0.24400000000000002,-101.0,0.0,-101.0,,-101.0,-404.0,-75.55,1.532155344604456,-77.0,-76.0,-73.0,-1511.0,,,,,,0.0,,,,,,0.0
0.9685263157894738,0.013023737118502363,0.944,0.966,0.992,18.402,-0.11736842105263158,0.02504776600252908,-0.194,-0.12,-0.072,-2.23,0.01863157894736842,0.0129298126591866,-0.004,0.014,0.06,0.354,,,,,,0.0,-77.15789473684211,1.4239736061545984,-78.0,-78.0,-74.0,-1466.0,,,,,,0.0,,,,,,0.0
0.906,0.10881727803984073,0.706,0.944,1.054,18.12,-0.14439999999999997,0.04044551891124652,-0.232,-0.14100000000000001,-0.068,-2.8879999999999995,0.0228,0.04470525696156997,-0.098,0.028,0.104,0.456,,,,,,0.0,-78.6,5.1613951602255765,-87.0,-79.0,-70.0,-1572.0,-96.0,0.0,-96.0,,-96.0,-96.0,,,,,,0.0
1.0226000000000002,0.17513434842999817,0.744,0.983,1.376,20.452,-0.25699999999999995,0.19715425432893907,-0.588,-0.276,0.248,-5.139999999999999,0.025,0.06020465098312588,-0.112,0.017,0.166,0.5,-97.0,0.0,-97.0,,-97.0,-97.0,-75.35,5.237127075028826,-82.0,-77.0,-68.0,-1507.0,-98.54545454545455,2.6410616447879907,-102.0,,-96.0,-1084.0,,,,,,0.0
0.9684000000000001,0.034586702647115684,0.88,0.976,1.02,19.368000000000002,0.030499999999999992,0.04719692786612281,-0.078,0.031,0.12,0.6099999999999999,-0.013000000000000001,0.02048902145052321,-0.068,-0.009000000000000001,0.014,-0.26,-98.375,1.1110243021644486,-100.0,,-97.0,-787.0,-81.15,4.475209492303125,-85.0,-84.0,-73.0,-1623.0,,,,,,0.0,,,,,,0.0
0.9714736842105264,0.016037352521544104,0.936,0.976,0.99,18.458000000000002,-0.03842105263157896,0.01287312904944038,-0.058,-0.036,-0.01,-0.7300000000000002,0.009578947368421055,0.010168660779564903,-0.012,0.012,0.028,0.18200000000000005,-100.0,0.0,-100.0,,-100.0,-400.0,-84.3157894736842,0.5668594533825794,-86.0,-84.0,-84.0,-1602.0,,,,,,0.0,,,,,,0.0
0.9782000000000002,0.013782597723216054,0.94,0.979,0.998,19.564000000000004,-0.08480000000000001,0.018829763673503714,-0.138,-0.081,-0.058,-1.6960000000000002,0.007700000000000001,0.00957653381970742,-0.01,0.007,0.024,0.15400000000000003,-101.81818181818181,1.6958871005616027,-104.0,,-100.0,-1120.0,-88.45,6.103072996450231,-100.0,-86.0,-79.0,-1769.0,,,,,,0.0,,,,,,0.0
0.7142999999999999,0.3544202449070877,0.034,0.745,1.16,14.285999999999998,-0.4024,0.18078893771467325,-0.672,-0.455,-0.062,-8.048,0.4493999999999999,0.2795146507788098,0.008,0.482,0.876,8.987999999999998,,,,,,0.0,-75.9,2.4474476501040834,-79.0,-75.0,-73.0,-1518.0,,,,,,0.0,,,,,,0.0
0.9957,0.15291471479226582,0.792,0.963,1.278,19.914,-0.21799999999999997,0.08729719354022784,-0.404,-0.215,-0.104,-4.359999999999999,0.23710000000000003,0.1125725987973983,0.072,0.196,0.53,4.742000000000001,,,,,,0.0,-77.15,4.198511641046146,-88.0,-78.0,-70.0,-1543.0,,,,,,0.0,,,,,,0.0
0.8885999999999997,0.103701687546539,0.652,0.926,1.036,17.771999999999995,-0.2611,0.05030496993339722,-0.354,-0.237,-0.168,-5.222,0.0965,0.0365779988517688,0.048,0.096,0.174,1.9300000000000002,-101.0,0.0,-101.0,,-101.0,-404.0,-76.25,4.998749843710925,-88.0,-75.0,-73.0,-1525.0,,,,,,0.0,,,,,,0.0
0.9349000000000002,0.0152509016126916,0.886,0.938,0.96,18.698000000000004,-0.30810000000000004,0.023861894308709025,-0.362,-0.304,-0.264,-6.162000000000001,0.09550000000000002,0.012804296154025804,0.076,0.096,0.12,1.9100000000000004,,,,,,0.0,-74.05,0.8645808232895291,-75.0,-74.0,-73.0,-1481.0,,,,,,0.0,,,,,,0.0
0.940625,0.017010566569047578,0.924,0.934,0.992,15.05,-0.3045,0.02382750511488772,-0.34,-0.297,-0.264,-4.872,0.095875,0.010011711891579782,0.076,0.096,0.112,1.534,-102.0,0.0,-102.0,,-102.0,-408.0,-76.1875,1.8103435447450298,-79.0,-76.0,-74.0,-1219.0,,,,,,0.0,,,,,,0.0
0.9443157894736842,0.014455203512481472,0.928,0.942,0.974,17.942,-0.2962105263157896,0.029025540381874614,-0.338,-0.304,-0.242,-5.628000000000002,0.09400000000000001,0.011787593835090036,0.064,0.096,0.11,1.7860000000000003,-100.0,0.0,-100.0,,-100.0,-800.0,-75.3157894736842,1.6239209074254222,-77.0,-76.0,-73.0,-1431.0,,,,,,0.0,,,,,,0.0
0.8946000000000002,0.06946970562770509,0.742,0.893,1.072,17.892000000000003,-0.24409999999999998,0.18398964644783683,-0.426,-0.31,0.102,-4.882,0.1484,0.1191530108725751,-0.058,0.167,0.39,2.968,,,,,,0.0,-74.2,2.6381811916545836,-79.0,-73.0,-72.0,-1484.0,,,,,,0.0,,,,,,0.0
1.0013999999999998,0.11074312619752072,0.844,0.995,1.186,20.028,0.15099999999999997,0.2433520084157926,-0.228,0.14,0.966,3.0199999999999996,0.0784,0.13962320724005733,-0.172,0.041999999999999996,0.352,1.568,,,,,,0.0,-76.4,5.276362383309167,-86.0,-74.0,-72.0,-1528.0,-101.0,0.0,-101.0,,-101.0,-404.0,,,,,,0.0
0.9666,0.04413207450369856,0.856,0.98,1.074,19.332,-0.1545,0.049734796671947905,-0.244,-0.137,-0.094,-3.09,0.1331,0.04174913172749824,0.082,0.138,0.236,2.662,,,,,,0.0,-73.2,1.9390719429665317,-77.0,-72.0,-72.0,-1464.0,,,,,,0.0,,,,,,0.0
0.9786000000000001,0.005624944444170098,0.972,0.978,0.99,19.572000000000003,-0.09360000000000002,0.008685620300243386,-0.11,-0.094,-0.076,-1.8720000000000003,0.09150000000000001,0.006895650803223727,0.078,0.092,0.11,1.8300000000000003,,,,,,0.0,-75.0,3.286335345030997,-79.0,-73.0,-72.0,-1500.0,,,,,,0.0,,,,,,0.0
0.9773,0.009083501527494788,0.956,0.977,0.992,19.546,-0.09490000000000001,0.005948949487094338,-0.108,-0.094,-0.084,-1.8980000000000004,0.1038,0.007039886362719216,0.092,0.103,0.12,2.076,,,,,,0.0,-72.2,0.39999999999999997,-73.0,-72.0,-72.0,-1444.0,,,,,,0.0,,,,,,0.0
0.9754000000000002,0.011934822998268564,0.94,0.976,0.992,19.508000000000003,-0.09930000000000003,0.005874521257089806,-0.11,-0.099,-0.09,-1.9860000000000004,0.10600000000000001,0.006603029607687671,0.096,0.106,0.12,2.12,,,,,,0.0,-72.6,0.4898979485566356,-73.0,-73.0,-72.0,-1452.0,-100.0,0.0,-100.0,,-100.0,-400.0,,,,,,0.0
0.9013,0.19035049251315322,0.59,0.95,1.248,18.026,-0.1375,0.21883681134580626,-0.666,-0.088,0.176,-2.75,-0.014599999999999997,0.3892809268381897,-0.624,0.049,0.764,-0.2919999999999999,,,,,,0.0,-76.4,4.029888335921977,-84.0,-76.0,-73.0,-1528.0,,,,,,0.0,,,,,,0.0
0.9008,0.18190481027174624,0.496,0.895,1.232,18.016000000000002,-0.1475,0.2558131153791768,-0.68,-0.136,0.326,-2.9499999999999997,-0.1186,0.2074917829698323,-0.5,-0.038,0.134,-2.372,,,,,,0.0,-70.8,1.8330302779823362,-74.0,-71.0,-69.0,-1416.0,,,,,,0.0,,,,,,0.0
0.5571,0.24843709465375738,0.05,0.62,0.876,11.142000000000001,-0.7495,0.2216915650177065,-1.314,-0.665,-0.468,-14.99,0.1292,0.20124254023441465,-0.306,0.14300000000000002,0.46,2.584,,,,,,0.0,-67.6,2.4166091947189146,-71.0,-68.0,-64.0,-1352.0,,,,,,0.0,,,,,,0.0
-0.26199999999999996,0.11644569549794445,-0.392,-0.291,0.07,-5.239999999999999,-0.8694000000000001,0.17997788753066304,-1.216,-0.805,-0.632,-17.388,0.34030000000000005,0.23175873230581842,-0.144,0.41000000000000003,0.626,6.806000000000001,,,,,,0.0,-76.4,1.3564659966250536,-78.0,-76.0,-75.0,-1528.0,,,,,,0.0,,,,,,0.0
-0.28919999999999996,0.027286626761107713,-0.354,-0.285,-0.242,-5.783999999999999,-0.6871,0.046820828698347486,-0.776,-0.678,-0.59,-13.742,0.7065999999999999,0.029813419797131622,0.654,0.708,0.764,14.131999999999998,,,,,,0.0,-75.8,0.7483314773547882,-77.0,-76.0,-75.0,-1516.0,,,,,,0.0,,,,,,0.0
-0.2685,0.008552777326693354,-0.288,-0.268,-0.254,-5.37,-0.6496999999999999,0.0061408468471376215,-0.66,-0.649,-0.638,-12.994,0.7451999999999999,0.010514751542475942,0.716,0.746,0.76,14.903999999999998,,,,,,0.0,-75.0,0.0,-75.0,-75.0,-75.0,-1500.0,,,,,,0.0,,,,,,0.0
-0.26637500000000003,0.005010925563206866,-0.276,-0.266,-0.254,-4.2620000000000005,-0.6480000000000001,0.005291502622129186,-0.656,-0.648,-0.64,-10.368000000000002,0.754625,0.008738385148298292,0.742,0.754,0.78,12.074,,,,,,0.0,-75.0,0.0,-75.0,-75.0,-75.0,-1200.0,-105.0,0.0,-105.0,,-105.0,-420.0,,,,,,0.0
-0.27090000000000003,0.00633955834423818,-0.284,-0.272,-0.26,-5.418,-0.6461000000000001,0.005948949487094344,-0.66,-0.646,-0.638,-12.922000000000002,0.7565,0.006837397165588678,0.748,0.756,0.774,15.129999999999999,,,,,,0.0,-75.2,0.4,-76.0,-75.0,-75.0,-1504.0,,,,,,0.0,,,,,,0.0
-0.08130000000000001,0.221337095851554,-0.314,-0.161,0.386,-1.6260000000000001,-0.7251,0.52510816980885,-1.368,-0.779,0.674,-14.501999999999999,0.46729999999999994,0.37134580918599314,-0.11,0.44300000000000006,1.036,9.345999999999998,,,,,,0.0,-70.4,4.317406628984582,-79.0,-68.0,-68.0,-1408.0,,,,,,0.0,,,,,,0.0
-0.09670000000000001,0.3435615083212903,-0.506,-0.193,1.12,-1.9340000000000002,-0.8046000000000003,0.5537758030105685,-1.506,-0.9219999999999999,0.752,-16.092000000000006,-0.1377,0.3663202287616669,-0.866,-0.063,0.326,-2.754,,,,,,0.0,-70.8,1.3266499161421599,-73.0,-71.0,-69.0,-1416.0,,,,,,0.0,,,,,,0.0
0.0403,0.10224534219219963,-0.164,0.026000000000000002,0.304,0.806,0.5025999999999999,0.3295561257206426,0.316,0.433,1.918,10.052,-0.7846,0.1213014426954601,-1.164,-0.781,-0.562,-15.691999999999998,,,,,,0.0,-73.8,1.9390719429665317,-77.0,-73.0,-72.0,-1476.0,,,,,,0.0,,,,,,0.0
-0.026800000000000008,0.011232096865679178,-0.062,-0.026,-0.008,-0.5360000000000001,0.45489999999999997,0.01960076529118187,0.406,0.455,0.51,9.097999999999999,-0.7634,0.013521834195108308,-0.782,-0.763,-0.724,-15.267999999999999,,,,,,0.0,-72.4,0.4898979485566356,-73.0,-72.0,-72.0,-1448.0,,,,,,0.0,,,,,,0.0
-0.03270000000000001,0.006396092557178954,-0.042,-0.034,-0.018,-0.6540000000000001,0.4373,0.010607073111843824,0.414,0.437,0.456,8.746,-0.779,0.008354639429682176,-0.8,-0.778,-0.76,-15.58,,,,,,0.0,-75.0,5.019960159204453,-85.0,-73.0,-72.0,-1500.0,,,,,,0.0,,,,,,0.0
-0.040400000000000005,0.007200000000000001,-0.058,-0.04,-0.032,-0.8080000000000002,0.422,0.015086417732516887,0.386,0.427,0.446,8.44,-0.7857000000000001,0.014412147653975792,-0.824,-0.784,-0.762,-15.714,,,,,,0.0,-73.2,0.4,-74.0,-73.0,-73.0,-1464.0,,,,,,0.0,,,,,,0.0
-0.14339999999999997,0.09654035425665268,-0.32,-0.128,-0.036,-2.8679999999999994,0.3222000000000001,0.06817008141406317,0.192,0.326,0.402,6.444000000000002,-0.8064,0.029493050028777945,-0.858,-0.8,-0.754,-16.128,,,,,,0.0,-75.0,1.4142135623730951,-77.0,-75.0,-73.0,-1500.0,,,,,,0.0,,,,,,0.0
-0.32609999999999995,0.07097175494518929,-0.398,-0.346,-0.088,-6.521999999999999,-0.0111,0.12937924872250572,-0.196,-0.044,0.174,-0.222,-0.8365,0.07278427027868041,-1.068,-0.826,-0.744,-16.73,,,,,,0.0,-76.2,2.3151673805580453,-79.0,-77.0,-73.0,-1524.0,,,,,,0.0,,,,,,0.0
-0.2164,0.16287492133536088,-0.552,-0.162,0.062,-4.328,-0.7016000000000001,0.5812674427490326,-1.744,-0.867,0.338,-14.032000000000002,0.0682,0.6618386208132614,-1.634,0.251,0.972,1.3639999999999999,,,,,,0.0,-73.4,1.0198039027185568,-75.0,-73.0,-72.0,-1468.0,-104.0,0.0,-104.0,,-104.0,-416.0,,,,,,0.0
-0.23569999999999997,0.0174845646214025,-0.272,-0.242,-0.186,-4.7139999999999995,-0.827,0.05048366072304979,-0.944,-0.823,-0.698,-16.54,0.5102,0.04254832546646226,0.398,0.527,0.56,10.204,,,,,,0.0,-83.0,8.508818954473059,-100.0,-79.0,-78.0,-1660.0,-98.0,0.0,-98.0,,-98.0,-392.0,,,,,,0.0
-0.2372,0.006705221845696078,-0.25,-0.239,-0.226,-4.744,-0.8205,0.005792236183029826,-0.832,-0.82,-0.808,-16.41,0.5394000000000001,0.011766052864066193,0.496,0.542,0.558,10.788000000000002,,,,,,0.0,-79.6,0.4898979485566356,-80.0,-80.0,-79.0,-1592.0,-100.0,0.0,-100.0,,-100.0,-400.0,,,,,,0.0
-0.23850000000000002,0.004330127018922187,-0.248,-0.238,-0.232,-2.862,-0.8213333333333331,0.007586537784494011,-0.83,-0.823,-0.802,-9.855999999999998,0.5369999999999999,0.006708203932499376,0.526,0.536,0.552,6.443999999999999,,,,,,0.0,-85.33333333333333,7.542472332656507,-96.0,-80.0,-80.0,-1024.0,-99.0,0.0,-99.0,,-99.0,-396.0,,,,,,0.0
-0.2431,0.05245750661249541,-0.366,-0.25,-0.09,-4.862,-0.8708,0.08019326655025347,-1.064,-0.833,-0.784,-17.416,0.43950000000000006,0.07939741809404131,0.28,0.45099999999999996,0.54,8.790000000000001,,,,,,0.0,-80.6,10.44222198576529,-100.0,-79.0,-69.0,-1612.0,-98.0,0.0,-98.0,,-98.0,-392.0,,,,,,0.0
0.40149999999999997,0.6443116869962859,-1.488,0.484,1.388,8.03,-0.5900000000000001,0.4431410610629532,-1.636,-0.592,0.11,-11.8,0.5410999999999999,0.6357148653287887,-0.298,0.313,2.384,10.822,,,,,,0.0,-69.4,0.7999999999999999,-71.0,-69.0,-69.0,-1388.0,-96.0,0.0,-96.0,,-96.0,-384.0,,,,,,0.0
0.9192,0.06657146535866548,0.806,0.952,0.992,18.384,0.07239999999999999,0.28321765481692696,-0.446,0.144,0.464,1.448,0.2082,0.053962579626997076,0.096,0.20700000000000002,0.304,4.164,,,,,,0.0,-73.0,2.0976176963403033,-76.0,-72.0,-71.0,-1460.0,,,,,,0.0,,,,,,0.0
0.9190999999999999,0.04754986855922948,0.814,0.928,0.998,18.381999999999998,0.3514,0.04481115932443614,0.274,0.357,0.44,7.028,0.0656,0.0431907397482377,-0.02,0.066,0.172,1.312,,,,,,0.0,-72.6,1.8547236990991407,-76.0,-72.0,-71.0,-1452.0,,,,,,0.0,,,,,,0.0
0.9017,0.08123613727892286,0.678,0.923,1.0,18.034,0.20460000000000003,0.11669121646465085,0.016,0.161,0.434,4.0920000000000005,0.2903,0.160571821936478,-0.062,0.339,0.588,5.806,,,,,,0.0,-73.4,0.7999999999999999,-75.0,-73.0,-73.0,-1468.0,,,,,,0.0,,,,,,0.0
0.9301,0.011840185809352793,0.908,0.928,0.95,18.602,0.0495,0.026577245906978398,0.022,0.043,0.134,0.9900000000000001,0.3903,0.006936137253543941,0.374,0.39,0.406,7.806,-102.0,0.0,-102.0,,-102.0,-408.0,-73.0,0.0,-73.0,-73.0,-73.0,-1460.0,,,,,,0.0,,,,,,0.0
0.9273999999999999,0.011833849753989604,0.888,0.93,0.946,18.548,-0.004999999999999999,0.014163332941084171,-0.03,-0.008,0.024,-0.09999999999999999,0.387,0.00928439551074813,0.366,0.386,0.408,7.74,,,,,,0.0,-72.8,0.4,-73.0,-73.0,-72.0,-1456.0,,,,,,0.0,,,,,,0.0
0.9458,0.05122460346357011,0.802,0.934,1.072,18.916,-0.0568,0.059337677743572,-0.186,-0.033,0.076,-1.1360000000000001,0.3592,0.08938321990172429,0.03,0.389,0.418,7.184,-103.0,0.0,-103.0,,-103.0,-412.0,-72.4,0.7999999999999999,-73.0,-73.0,-71.0,-1448.0,,,,,,0.0,,,,,,0.0
0.9343999999999999,0.12826784476243455,0.662,0.962,1.122,18.688,0.2494,0.33721631040031264,-0.478,0.33599999999999997,0.736,4.988,0.11420000000000001,0.09903918416465274,-0.062,0.121,0.312,2.2840000000000003,,,,,,0.0,-73.2,3.059411708155671,-78.0,-74.0,-69.0,-1464.0,,,,,,0.0,,,,,,0.0
0.8485999999999999,0.1851195289535926,0.472,0.863,1.34,16.971999999999998,-0.44220000000000004,0.14772799328495598,-0.754,-0.449,-0.168,-8.844000000000001,0.1335,0.06843646688717939,0.03,0.106,0.248,2.67,,,,,,0.0,-72.6,1.3564659966250536,-74.0,-73.0,-71.0,-1452.0,,,,,,0.0,,,,,,0.0
0.9436,0.031512537187602004,0.88,0.947,1.0,18.872,-0.2774,0.06843127939765557,-0.388,-0.274,-0.072,-5.548,0.07190000000000002,0.043305773287172694,0.004,0.069,0.18,1.4380000000000004,,,,,,0.0,-73.8,0.9797958971132713,-75.0,-74.0,-72.0,-1476.0,,,,,,0.0,,,,,,0.0
0.9354000000000001,0.012232742946698393,0.904,0.937,0.956,18.708000000000002,-0.3135,0.012804296154025816,-0.34,-0.314,-0.282,-6.2700000000000005,0.0845,0.00807155499268883,0.066,0.086,0.096,1.6900000000000002,,,,,,0.0,-73.6,0.4898979485566356,-74.0,-74.0,-73.0,-1472.0,,,,,,0.0,,,,,,0.0
0.9364000000000001,0.008799999999999962,0.918,0.934,0.954,18.728,-0.3108,0.009927738916792694,-0.328,-0.313,-0.288,-6.216,0.08920000000000002,0.009907572861200668,0.064,0.092,0.104,1.7840000000000003,,,,,,0.0,-73.0,0.6324555320336759,-74.0,-73.0,-72.0,-1460.0,,,,,,0.0,,,,,,0.0
0.939125,0.007347406004842759,0.926,0.94,0.952,15.026,-0.302625,0.00976521249128764,-0.32,-0.306,-0.282,-4.842,0.0865,0.009962429422585635,0.07,0.087,0.108,1.384,,,,,,0.0,-73.75,0.4330127018922193,-74.0,-74.0,-73.0,-1180.0,,,,,,0.0,,,,,,0.0
0.9352,0.012859237924542785,0.886,0.94,0.952,18.704,-0.3086,0.010101485039339522,-0.336,-0.307,-0.296,-6.172,0.08270000000000001,0.007855571271397134,0.062,0.082,0.096,1.6540000000000001,,,,,,0.0,-74.0,0.0,-74.0,-74.0,-74.0,-1480.0,,,,,,0.0,,,,,,0.0
0.9345000000000001,0.015477402882912859,0.894,0.934,0.95,18.69,-0.30480000000000007,0.009641576634555168,-0.328,-0.305,-0.288,-6.096000000000001,0.07930000000000001,0.008179853299418026,0.064,0.078,0.094,1.586,,,,,,0.0,-73.4,0.4898979485566356,-74.0,-73.0,-73.0,-1468.0,,,,,,0.0,,,,,,0.0
0.9408000000000001,0.011214276615100924,0.904,0.941,0.958,18.816000000000003,-0.3013,0.007753063910480817,-0.32,-0.302,-0.288,-6.026,0.07970000000000002,0.009407975340103736,0.064,0.078,0.096,1.5940000000000003,,,,,,0.0,-74.0,0.0,-74.0,-74.0,-74.0,-1480.0,,,,,,0.0,,,,,,0.0
0.9426,0.058368141995441325,0.838,0.9359999999999999,1.102,18.852,-0.24469999999999997,0.07385194648755035,-0.344,-0.268,-0.072,-4.893999999999999,0.06580000000000001,0.03135538231308941,-0.016,0.068,0.108,1.3160000000000003,,,,,,0.0,-73.0,0.6324555320336759,-74.0,-73.0,-72.0,-1460.0,,,,,,0.0,,,,,,0.0
0.9347999999999999,0.1230583601385944,0.662,0.9319999999999999,1.14,18.695999999999998,0.07459999999999999,0.13468942051995025,-0.19,0.097,0.252,1.4919999999999998,-0.20980000000000004,0.14076775198886995,-0.37,-0.22699999999999998,0.078,-4.196000000000001,,,,,,0.0,-78.0,3.847076812334269,-84.0,-76.0,-74.0,-1560.0,,,,,,0.0,,,,,,0.0
0.8526,0.019850440801150993,0.806,0.851,0.894,17.052,0.25570000000000004,0.01731213447267552,0.22,0.251,0.286,5.114000000000001,-0.3375,0.01876033048749408,-0.37,-0.339,-0.296,-6.750000000000001,,,,,,0.0,-74.6,2.244994432064365,-79.0,-74.0,-73.0,-1492.0,,,,,,0.0,,,,,,0.0
0.8404999999999999,0.012423767544509188,0.802,0.844,0.862,16.81,0.2707,0.014174272468102192,0.248,0.271,0.294,5.414,-0.34490000000000004,0.006737210105080571,-0.358,-0.344,-0.336,-6.898000000000001,,,,,,0.0,-74.8,0.7483314773547882,-76.0,-75.0,-74.0,-1496.0,,,,,,0.0,,,,,,0.0
0.8338999999999999,0.012497599769555764,0.814,0.83,0.86,16.677999999999997,0.28490000000000004,0.014648890742988006,0.254,0.287,0.306,5.698,-0.35479999999999995,0.008231646250902669,-0.376,-0.354,-0.338,-7.095999999999999,,,,,,0.0,-77.4,1.0198039027185568,-79.0,-77.0,-76.0,-1548.0,,,,,,0.0,,,,,,0.0
0.8432499999999999,0.017361955535019666,0.806,0.848,0.864,13.491999999999999,0.27775,0.012587195875174095,0.246,0.277,0.3,4.444,-0.33687500000000004,0.013265910259005967,-0.36,-0.333,-0.312,-5.390000000000001,,,,,,0.0,-85.25,2.8613807855648994,-89.0,-85.0,-82.0,-1364.0,,,,,,0.0,,,,,,0.0
0.9166000000000001,0.04502488200983985,0.822,0.927,0.974,18.332,0.20049999999999998,0.06761619628461808,0.028,0.211,0.294,4.01,-0.3086,0.05087671373035015,-0.366,-0.325,-0.178,-6.172,,,,,,0.0,-75.0,3.22490309931942,-79.0,-74.0,-70.0,-1500.0,,,,,,0.0,,,,,,0.0
0.927125,0.05541646303220732,0.824,0.927,1.038,14.834,-0.279625,0.08001630693177485,-0.4,-0.297,-0.096,-4.474,0.05525,0.07065364463352192,-0.05,0.033,0.222,0.884,,,,,,0.0,-74.0,2.5495097567963922,-77.0,-74.5,-70.0,-1184.0,,,,,,0.0,,,,,,0.0
0.9433684210526315,0.014669016851911416,0.918,0.944,0.978,17.924,-0.2795789473684211,0.0334259838881665,-0.35,-0.282,-0.202,-5.312,0.07389473684210528,0.013909083502449624,0.048,0.072,0.102,1.4040000000000004,,,,,,0.0,-75.89473684210526,1.7739262680371284,-78.0,-76.0,-74.0,-1442.0,,,,,,0.0,,,,,,0.0
0.9428999999999998,0.012140428328522815,0.91,0.944,0.96,18.857999999999997,-0.27980000000000005,0.010824047302187835,-0.306,-0.28,-0.264,-5.596000000000001,0.06300000000000001,0.007389181280764467,0.048,0.062,0.076,1.2600000000000002,,,,,,0.0,-79.75,0.82915619758885,-81.0,-80.0,-78.0,-1595.0,,,,,,0.0,,,,,,0.0
0.9487,0.00820426718238745,0.926,0.95,0.96,18.974,-0.2701,0.012173331507849435,-0.294,-0.27,-0.244,-5.402,0.06240000000000001,0.008309031231136394,0.048,0.062,0.088,1.2480000000000002,,,,,,0.0,-78.1,0.8888194417315588,-79.0,-78.0,-77.0,-1562.0,,,,,,0.0,,,,,,0.0
0.9504999999999999,0.012932517156377558,0.92,0.947,0.974,15.207999999999998,-0.264,0.015116216457830971,-0.296,-0.265,-0.242,-4.224,0.045625,0.0347506744538865,-0.03,0.061,0.076,0.73,,,,,,0.0,-74.625,0.7806247497997998,-77.0,-74.5,-74.0,-1194.0,,,,,,0.0,,,,,,0.0
0.8836999999999999,0.11872535533743413,0.632,0.916,1.016,17.674,-0.1486,0.10508682124795668,-0.298,-0.16599999999999998,0.03,-2.9720000000000004,0.0239,0.09806829253127639,-0.088,-0.005,0.31,0.47800000000000004,-101.0,0.0,-101.0,,-101.0,-404.0,-75.6,2.576819745345025,-78.0,-76.0,-71.0,-1512.0,-100.0,0.0,-100.0,,-100.0,-300.0,,,,,,0.0
1.0417,0.283652798329225,0.712,0.941,1.712,20.834000000000003,-0.03949999999999999,0.2425991549861623,-0.366,-0.065,0.53,-0.7899999999999999,-0.0429,0.08251418059945817,-0.218,-0.032,0.102,-0.858,-97.0,0.0,-97.0,,-97.0,-291.0,-77.75,3.519588044075613,-84.0,-76.0,-74.0,-1555.0,-100.0,0.0,-100.0,,-100.0,-100.0,,,,,,0.0
0.946842105263158,0.053340281172561003,0.792,0.966,1.01,17.990000000000002,0.2103157894736842,0.08343232532170763,0.112,0.156,0.354,3.996,-0.009789473684210528,0.04210210514472796,-0.092,-0.004,0.096,-0.18600000000000003,-97.0,0.0,-97.0,,-97.0,-97.0,-81.15789473684211,3.7453572367699364,-88.0,-80.0,-76.0,-1542.0,-98.5,2.5,-101.0,,-96.0,-788.0,,,,,,0.0
0.9701000000000001,0.016546600859391032,0.924,0.966,1.0,19.402,0.10500000000000001,0.021199056582782167,0.07,0.10300000000000001,0.146,2.1,-0.016400000000000005,0.013215142829345432,-0.04,-0.016,0.006,-0.32800000000000007,,,,,,0.0,-84.05,4.620335485654694,-91.0,-84.0,-79.0,-1681.0,,,,,,0.0,,,,,,0.0
0.9702000000000002,0.03338802180423392,0.908,0.967,1.036,19.404000000000003,-0.0775,0.16157088227771735,-0.322,-0.065,0.28,-1.55,0.084,0.050267285584164975,-0.004,0.086,0.162,1.6800000000000002,,,,,,0.0,-78.65,6.310903263400573,-91.0,-74.0,-73.0,-1573.0,,,,,,0.0,,,,,,0.0
0.9801000000000002,0.14902278349299478,0.678,0.972,1.276,19.602000000000004,-0.21880000000000002,0.24309948580776555,-0.528,-0.212,0.638,-4.376,0.10010000000000001,0.17444824447382667,-0.344,0.16199999999999998,0.35,2.0020000000000002,,,,,,0.0,-74.6,1.4966629547095764,-76.0,-75.0,-72.0,-1492.0,,,,,,0.0,,,,,,0.0
0.9922999999999998,0.14873234348990808,0.752,0.9390000000000001,1.304,19.845999999999997,-0.1339,0.10226920357566104,-0.274,-0.151,0.102,-2.678,-0.2101,0.11114220620448381,-0.456,-0.16299999999999998,-0.078,-4.202,,,,,,0.0,-77.5,8.470537173048708,-96.0,-76.0,-68.0,-1550.0,,,,,,0.0,,,,,,0.0
0.8823000000000001,0.1566860236268698,0.584,0.935,1.104,17.646,-0.2656,0.0686107863240176,-0.426,-0.275,-0.1,-5.312,0.056999999999999995,0.0706328535456412,-0.056,0.049,0.23,1.14,-103.5,0.5,-104.0,,-103.0,-828.0,-78.7,4.616275555033517,-96.0,-76.0,-76.0,-1574.0,,,,,,0.0,,,,,,0.0
0.9408,0.012253978945632283,0.912,0.942,0.966,18.816,-0.2907,0.021966110261036207,-0.336,-0.288,-0.242,-5.814,0.08850000000000001,0.015425628026112905,0.064,0.088,0.124,1.7700000000000002,-101.0,0.0,-101.0,,-101.0,-707.0,-83.5,2.711088342345192,-86.0,-85.0,-80.0,-1670.0,,,,,,0.0,,,,,,0.0
0.942,0.011423659658795833,0.908,0.944,0.958,15.072,-0.27025,0.019607077803691194,-0.318,-0.266,-0.248,-4.324,0.0875,0.008170067319184095,0.07,0.088,0.1,1.4,-100.2,0.4,-101.0,,-100.0,-501.0,-86.4375,2.9148059540902547,-89.0,-87.0,-80.0,-1383.0,,,,,,0.0,,,,,,0.0
0.9496249999999999,0.008373134120507095,0.94,0.946,0.972,15.193999999999999,-0.26925,0.006319612329882266,-0.284,-0.271,-0.26,-4.308,0.079375,0.006845390785046533,0.07,0.079,0.094,1.27,-101.85714285714286,0.989743318610787,-103.0,,-101.0,-713.0,-86.1875,2.788788939665388,-89.0,-88.0,-82.0,-1379.0,,,,,,0.0,,,,,,0.0
0.8823000000000002,0.10312182116312724,0.632,0.925,1.016,17.646000000000004,-0.12990000000000002,0.19116011613304695,-0.5,-0.21000000000000002,0.168,-2.5980000000000003,0.052100000000000014,0.14609103326351006,-0.238,0.098,0.23,1.0420000000000003,-103.0,0.0,-103.0,,-103.0,-103.0,-77.3,8.240752392834043,-93.0,-73.0,-71.0,-1546.0,-103.0,0.0,-103.0,,-103.0,-309.0,,,,,,0.0
1.0243,0.12023356436536346,0.796,1.022,1.304,20.486,0.12710000000000002,0.23224941334694477,-0.202,0.087,0.774,2.5420000000000003,-0.05369999999999999,0.21534463076659238,-0.738,-0.052000000000000005,0.236,-1.0739999999999998,,,,,,0.0,-74.9,2.32163735324878,-78.0,-74.0,-72.0,-1498.0,-103.0,0.0,-103.0,,-103.0,-103.0,,,,,,0.0
0.9745000000000001,0.014154504583347308,0.934,0.977,1.008,19.490000000000002,-0.12679999999999997,0.02314649001468689,-0.168,-0.128,-0.09,-2.5359999999999996,0.06570000000000001,0.02208415721733569,0.03,0.06,0.1,1.3140000000000003,,,,,,0.0,-74.85,1.6815171720800235,-78.0,-74.0,-73.0,-1497.0,,,,,,0.0,,,,,,0.0
0.9766,0.012555476892575598,0.93,0.978,0.99,19.532,-0.09610000000000002,0.005915234568468102,-0.112,-0.096,-0.084,-1.9220000000000004,0.046700000000000005,0.00798185442112295,0.018,0.048,0.056,0.9340000000000002,,,,,,0.0,-73.2,0.39999999999999997,-74.0,-73.0,-73.0,-1464.0,,,,,,0.0,,,,,,0.0
0.9785,0.011417092449481185,0.94,0.982,0.992,19.57,-0.09520000000000002,0.0071386273190298995,-0.114,-0.095,-0.08,-1.9040000000000004,0.04410000000000001,0.005566866263886712,0.034,0.044,0.06,0.8820000000000001,,,,,,0.0,-73.0,0.0,-73.0,-73.0,-73.0,-1460.0,,,,,,0.0,,,,,,0.0
0.9810999999999999,0.01459417692095037,0.944,0.983,1.022,19.621999999999996,-0.09580000000000002,0.010196077677224708,-0.114,-0.098,-0.058,-1.9160000000000004,0.0485,0.011981235328629517,0.038,0.044,0.08,0.9700000000000001,,,,,,0.0,-73.75,1.7853571071357126,-78.0,-73.0,-73.0,-1475.0,-100.0,0.0,-100.0,,-100.0,-300.0,,,,,,0.0
0.8701000000000001,0.24024194055160308,0.454,0.7989999999999999,1.308,17.402,-0.0685,0.35212377085337476,-1.21,-0.025,0.338,-1.37,-0.1296,0.42263156531428175,-0.708,-0.292,0.68,-2.592,,,,,,0.0,-75.35,5.052474641203061,-82.0,-73.0,-69.0,-1507.0,-100.0,0.0,-100.0,,-100.0,-100.0,,,,,,0.0
0.7851250000000001,0.2460650003047975,0.24,0.776,1.222,12.562000000000001,-0.45762500000000006,0.210917304588789,-0.858,-0.441,-0.032,-7.322000000000001,0.14250000000000002,0.27508680448178535,-0.248,0.08,0.63,2.2800000000000002,,,,,,0.0,-66.8125,1.5499495959546556,-71.0,-67.0,-65.0,-1069.0,,,,,,0.0,,,,,,0.0
-0.009199999999999996,0.11569684524653212,-0.226,0.028999999999999998,0.144,-0.18399999999999994,-0.9339000000000001,0.22540938312324088,-1.328,-0.936,-0.264,-18.678,0.3646,0.20146374363641711,0.088,0.37,0.672,7.292,,,,,,0.0,-71.2,3.8678159211627428,-75.0,-74.0,-65.0,-1424.0,,,,,,0.0,,,,,,0.0
-0.15810000000000002,0.023043220261065946,-0.228,-0.148,-0.132,-3.1620000000000004,-0.8169000000000001,0.03466107326670655,-0.91,-0.819,-0.736,-16.338,0.5864,0.023686282950264682,0.54,0.59,0.62,11.728,,,,,,0.0,-76.05,1.0712142642814275,-77.0,-77.0,-74.0,-1521.0,,,,,,0.0,,,,,,0.0
-0.1429,0.007936623967405784,-0.162,-0.144,-0.126,-2.858,-0.8007,0.008081460264085925,-0.818,-0.8,-0.784,-16.014,0.6134999999999999,0.008714929718592121,0.6,0.613,0.632,12.269999999999998,,,,,,0.0,-76.85,0.7262919523166974,-78.0,-77.0,-76.0,-1537.0,,,,,,0.0,,,,,,0.0
-0.1434,0.023247365442131285,-0.184,-0.142,-0.08,-2.868,-0.7071000000000001,0.08046732256015483,-0.818,-0.724,-0.57,-14.142000000000001,0.7195,0.08451005857292965,0.598,0.714,0.88,14.39,,,,,,0.0,-74.65,0.5722761571129799,-76.0,-75.0,-74.0,-1493.0,-103.0,0.0,-103.0,,-103.0,-412.0,,,,,,0.0
0.056299999999999996,0.17094475715856275,-0.18,-0.011,0.422,1.126,-0.6115999999999999,0.5048542760044724,-1.626,-0.641,0.432,-12.232,0.5998,0.5347518676919232,-0.794,0.806,1.124,11.996,,,,,,0.0,-74.55,4.236448984704053,-80.0,-74.0,-68.0,-1491.0,,,,,,0.0,,,,,,0.0
-0.004099999999999998,0.24493629784088755,-0.36,-0.049,0.95,-0.08199999999999995,0.25850000000000006,0.3237282038995058,-0.434,0.193,1.062,5.170000000000001,-1.0042,0.4201599219344939,-2.64,-0.854,-0.704,-20.084,,,,,,0.0,-74.85,3.1666228067138023,-81.0,-73.0,-72.0,-1497.0,,,,,,0.0,,,,,,0.0
0.07938461538461537,0.03876068281834544,-0.032,0.078,0.134,1.0319999999999998,0.2606153846153847,0.0318011573605027,0.192,0.26,0.3,3.388000000000001,-0.8423076923076922,0.04617589217060649,-0.96,-0.84,-0.772,-10.95,,,,,,0.0,-75.3076923076923,0.46153846153846145,-76.0,-75.0,-75.0,-979.0,,,,,,0.0,,,,,,0.0
0.06,0.009486832980505138,0.038,0.062,0.072,0.48,0.26575000000000004,0.004630064794363038,0.258,0.266,0.272,2.1260000000000003,-0.848,0.005196152422706637,-0.856,-0.849,-0.84,-6.784,,,,,,0.0,-75.0,0.0,-75.0,-75.0,-75.0,-600.0,,,,,,0.0,,,,,,0.0
0.056631578947368436,0.012278395773474771,0.024,0.058,0.082,1.0760000000000003,0.28505263157894734,0.030938774316909952,0.226,0.294,0.368,5.4159999999999995,-0.8345263157894738,0.010028215043212248,-0.848,-0.836,-0.808,-15.856000000000002,,,,,,0.0,-75.36842105263158,0.8085416576703798,-76.0,-76.0,-74.0,-1432.0,,,,,,0.0,,,,,,0.0
0.07250000000000002,0.005995831885568506,0.062,0.076,0.08,1.4500000000000004,0.3175,0.006689544080129832,0.304,0.316,0.328,6.35,-0.8254999999999999,0.007996874389409898,-0.84,-0.826,-0.808,-16.509999999999998,,,,,,0.0,-76.0,0.0,-76.0,-76.0,-76.0,-1520.0,,,,,,0.0,,,,,,0.0
0.07100000000000002,0.006115553940568261,0.06,0.07,0.082,1.4200000000000004,0.32099999999999995,0.005709640969448085,0.304,0.321,0.328,6.419999999999999,-0.8299,0.006737210105080595,-0.848,-0.83,-0.82,-16.598,,,,,,0.0,-75.65,0.47696960070847283,-76.0,-76.0,-75.0,-1513.0,,,,,,0.0,,,,,,0.0
-0.14980000000000002,0.14918297489995297,-0.418,-0.129,0.048,-2.9960000000000004,0.2177,0.1364174109122439,-0.04,0.302,0.37,4.354,-0.8311,0.10749041817762178,-1.018,-0.86,-0.512,-16.622,,,,,,0.0,-75.95,2.4181604578687494,-80.0,-76.0,-72.0,-1519.0,,,,,,0.0,,,,,,0.0
-0.4196,0.10173416338674046,-0.77,-0.385,-0.304,-8.392,0.0161,0.07294511635469506,-0.088,-0.008,0.162,0.322,-0.7565999999999999,0.11839949324215877,-0.852,-0.809,-0.402,-15.132,,,,,,0.0,-77.1,1.786057109949175,-79.0,-78.0,-72.0,-1542.0,,,,,,0.0,,,,,,0.0
-0.34099999999999997,0.004795831523312701,-0.35,-0.34,-0.334,-6.819999999999999,-0.04810000000000001,0.005915234568468101,-0.058,-0.05,-0.036,-0.9620000000000002,-0.8150000000000001,0.009787747442593689,-0.832,-0.816,-0.796,-16.3,,,,,,0.0,-78.0,0.0,-78.0,-78.0,-78.0,-1560.0,,,,,,0.0,,,,,,0.0
-0.34170000000000006,0.005874521257089787,-0.352,-0.34,-0.336,-6.834000000000001,-0.04710000000000001,0.00733416661932356,-0.062,-0.049,-0.034,-0.9420000000000002,-0.8155000000000001,0.007506663706334489,-0.826,-0.816,-0.8,-16.310000000000002,,,,,,0.0,-77.4,0.4898979485566356,-78.0,-77.0,-77.0,-1548.0,,,,,,0.0,,,,,,0.0
-0.3396,0.004079215610874208,-0.346,-0.338,-0.334,-6.792,-0.04650000000000001,0.004727578661429126,-0.058,-0.046,-0.038,-0.9300000000000002,-0.8165000000000001,0.0055452682532046715,-0.826,-0.818,-0.808,-16.330000000000002,,,,,,0.0,-77.4,0.4898979485566356,-78.0,-77.0,-77.0,-1548.0,,,,,,0.0,,,,,,0.0
-0.34330000000000005,0.005666568626602858,-0.354,-0.344,-0.336,-6.8660000000000005,-0.05030000000000001,0.004828043081829325,-0.062,-0.05,-0.042,-1.0060000000000002,-0.8183,0.006108191221630155,-0.83,-0.818,-0.804,-16.366,,,,,,0.0,-77.45,0.4974937185533099,-78.0,-77.0,-77.0,-1549.0,,,,,,0.0,,,,,,0.0
-0.34669999999999995,0.007855571271397122,-0.37,-0.346,-0.336,-6.933999999999999,-0.042,0.010770329614269008,-0.058,-0.043,-0.008,-0.8400000000000001,-0.8092,0.03124995999997438,-0.826,-0.818,-0.676,-16.184,,,,,,0.0,-76.95,1.3219304066402284,-78.0,-77.0,-74.0,-1539.0,,,,,,0.0,,,,,,0.0
-0.194,0.6362348622953634,-1.128,-0.309,1.266,-3.88,-0.2995,0.6961151844343004,-1.986,-0.19,0.848,-5.99,0.08630000000000002,0.9017390476185447,-0.936,-0.04999999999999999,1.678,1.7260000000000004,,,,,,0.0,-71.3,2.812472222085047,-76.0,-70.0,-68.0,-1426.0,,,,,,0.0,,,,,,0.0
0.9052,0.16111412104468065,0.374,0.963,1.078,18.104,-0.08819999999999999,0.34958197894056264,-0.826,-0.036000000000000004,0.338,-1.7639999999999998,0.12660000000000005,0.257192612646631,-0.346,0.14200000000000002,0.876,2.532000000000001,,,,,,0.0,-72.0,2.6076809620810595,-76.0,-71.0,-68.0,-1440.0,,,,,,0.0,,,,,,0.0
0.8999,0.284322686396988,0.546,0.858,1.784,17.998,0.1437,0.4068544088491607,-0.966,0.139,0.798,2.8739999999999997,0.1754,0.30349504114565035,-0.592,0.092,0.72,3.508,,,,,,0.0,-70.3,1.7058722109231979,-76.0,-70.0,-69.0,-1406.0,,,,,,0.0,,,,,,0.0
0.9477999999999998,0.17195103954323743,0.598,0.955,1.376,18.955999999999996,-0.21820000000000003,0.29255625100141,-0.584,-0.229,0.942,-4.364000000000001,0.1437,0.07296924009471388,0.044,0.122,0.344,2.8739999999999997,,,,,,0.0,-75.6,2.8705400188814645,-78.0,-77.0,-70.0,-1512.0,,,,,,0.0,,,,,,0.0
0.9469999999999998,0.015079787796915425,0.92,0.945,0.974,18.939999999999998,-0.2538,0.035292492119429586,-0.292,-0.269,-0.192,-5.0760000000000005,0.15010000000000004,0.023777930944470338,0.102,0.16,0.184,3.0020000000000007,,,,,,0.0,-77.05,0.9205976319760987,-78.0,-77.0,-76.0,-1541.0,,,,,,0.0,,,,,,0.0
0.9438000000000001,0.006289674077406534,0.928,0.944,0.958,18.876,-0.2692,0.008009993757800307,-0.286,-0.269,-0.254,-5.384,0.1511,0.006587108622149788,0.142,0.152,0.166,3.0220000000000002,,,,,,0.0,-77.95,0.21794494717703367,-78.0,-78.0,-77.0,-1559.0,,,,,,0.0,,,,,,0.0
0.9562000000000002,0.017853851125177456,0.934,0.952,1.008,19.124000000000002,-0.22169999999999995,0.06380054858698317,-0.296,-0.252,-0.074,-4.433999999999999,0.1738,0.028452767879417286,0.14,0.159,0.236,3.476,,,,,,0.0,-76.6,1.9078784028338915,-78.0,-78.0,-74.0,-1532.0,,,,,,0.0,,,,,,0.0
0.942,0.17126937846562063,0.68,0.9,1.302,18.84,0.1975,0.2099960713918239,-0.178,0.228,0.67,3.95,-0.059800000000000006,0.160356976773697,-0.354,-0.035,0.216,-1.1960000000000002,,,,,,0.0,-72.1,2.32163735324878,-75.0,-72.0,-68.0,-1442.0,,,,,,0.0,,,,,,0.0
0.9649000000000001,0.13059016042566146,0.822,0.935,1.23,19.298000000000002,-0.17489999999999997,0.1313536828566295,-0.372,-0.16799999999999998,0.176,-3.4979999999999993,0.047799999999999995,0.11973955069232554,-0.148,0.038,0.366,0.956,,,,,,0.0,-76.35,5.27517772212463,-86.0,-73.0,-72.0,-1527.0,,,,,,0.0,,,,,,0.0
0.9664999999999999,0.03301136168048813,0.888,0.97,1.01,15.463999999999999,-0.14,0.06449030934954492,-0.232,-0.14100000000000001,0.014,-2.24,0.0205,0.04517466103912679,-0.08,0.040999999999999995,0.062,0.328,-102.0,0.0,-102.0,,-102.0,-714.0,-73.0,2.692582403567252,-77.0,-72.0,-70.0,-1168.0,,,,,,0.0,,,,,,0.0
0.9651,0.019823975383358408,0.914,0.966,1.014,19.302,-0.1638,0.020716177253537874,-0.196,-0.164,-0.12,-3.2760000000000002,0.035100000000000006,0.012024558203942463,0.014,0.036000000000000004,0.056,0.7020000000000002,-102.44444444444444,1.4229164972072998,-104.0,,-101.0,-922.0,-73.1,2.754995462791182,-78.0,-72.0,-71.0,-1462.0,,,,,,0.0,,,,,,0.0
0.9641000000000002,0.012968808734806752,0.926,0.966,0.982,19.282000000000004,-0.1845,0.024032269971852427,-0.232,-0.178,-0.152,-3.69,0.03790000000000001,0.016606926265868707,0.006,0.044,0.062,0.7580000000000002,-102.0,0.0,-102.0,,-102.0,-816.0,-72.45,2.9744747435471703,-77.0,-70.0,-70.0,-1449.0,,,,,,0.0,,,,,,0.0
0.9634736842105261,0.0073939407700361936,0.952,0.962,0.984,18.305999999999997,-0.2092631578947369,0.011647643110419412,-0.228,-0.212,-0.186,-3.976000000000001,0.042105263157894736,0.007745251427009328,0.03,0.038,0.06,0.8,-99.0,0.0,-99.0,,-99.0,-396.0,-71.78947368421052,1.672657745481127,-75.0,-71.0,-70.0,-1364.0,,,,,,0.0,,,,,,0.0
0.9607000000000001,0.008444524853418345,0.94,0.963,0.974,19.214000000000002,-0.19920000000000002,0.009846826900072936,-0.224,-0.2,-0.178,-3.9840000000000004,0.04880000000000001,0.008059776671843953,0.038,0.048,0.072,0.9760000000000002,-101.0,0.0,-101.0,,-101.0,-808.0,-72.4,2.576819745345025,-76.0,-71.0,-70.0,-1448.0,,,,,,0.0,,,,,,0.0
0.961,0.013586758259423029,0.924,0.961,0.988,19.22,-0.19760000000000003,0.03451144737619679,-0.272,-0.2,-0.072,-3.9520000000000004,0.032900000000000006,0.010420652570736632,0.012,0.032,0.054,0.6580000000000001,-103.0,0.0,-103.0,,-103.0,-412.0,-70.4,0.4898979485566356,-71.0,-70.0,-70.0,-1408.0,,,,,,0.0,,,,,,0.0
0.9620000000000001,0.00695701085237044,0.944,0.962,0.976,19.240000000000002,-0.2088,0.010342146779078316,-0.226,-0.21,-0.186,-4.176,0.03630000000000001,0.006641535966928132,0.024,0.035,0.046,0.7260000000000002,-104.0,0.0,-104.0,,-104.0,-416.0,-71.9,3.562302626111375,-79.0,-70.0,-70.0,-1438.0,,,,,,0.0,,,,,,0.0
0.9427999999999999,0.04695700160785395,0.846,0.968,1.004,18.855999999999998,-0.007000000000000006,0.20464847910502537,-0.208,-0.079,0.518,-0.14000000000000012,-0.006200000000000001,0.045108314089533426,-0.1,-0.001,0.064,-0.12400000000000001,,,,,,0.0,-73.6,2.537715508089904,-77.0,-73.5,-70.0,-1472.0,,,,,,0.0,,,,,,0.0
0.5735,0.10822545911198529,0.448,0.52,0.798,11.47,0.7388000000000001,0.09595498944817825,0.464,0.758,0.882,14.776000000000002,-0.1752,0.03746678529044092,-0.242,-0.179,-0.08,-3.504,,,,,,0.0,-72.3,1.4177446878757822,-76.0,-72.0,-71.0,-1446.0,,,,,,0.0,,,,,,0.0
0.5125,0.010674736530706518,0.486,0.512,0.53,10.25,0.7721,0.017128631001921916,0.742,0.772,0.806,15.442,-0.21430000000000002,0.012414104881142257,-0.24,-0.215,-0.194,-4.2860000000000005,,,,,,0.0,-71.2,2.6381811916545836,-79.0,-70.0,-70.0,-1424.0,,,,,,0.0,,,,,,0.0
0.49190000000000006,0.011991246807567604,0.476,0.487,0.52,9.838000000000001,0.7807999999999999,0.01771327186038764,0.742,0.786,0.808,15.616,-0.2285,0.016332482971061078,-0.258,-0.232,-0.194,-4.57,,,,,,0.0,-71.5,3.0740852297878796,-79.0,-70.0,-70.0,-1430.0,,,,,,0.0,,,,,,0.0
0.597,0.09841646203760832,0.454,0.586,0.76,11.94,0.7023,0.06998649869796315,0.55,0.713,0.792,14.046000000000001,-0.20870000000000002,0.029894982856660073,-0.242,-0.214,-0.136,-4.174,,,,,,0.0,-72.6,3.4117444218463957,-78.0,-71.0,-69.0,-1452.0,,,,,,0.0,,,,,,0.0
0.8528,0.08243639972730495,0.714,0.854,1.022,17.056,0.3802,0.1410303513432481,0.08,0.42200000000000004,0.588,7.604,-0.1204,0.13327805520789984,-0.288,-0.179,0.152,-2.408,-102.0,0.0,-102.0,,-102.0,-408.0,-72.6,1.9078784028338918,-75.0,-73.0,-70.0,-1452.0,,,,,,0.0,,,,,,0.0
0.9743,0.05084594379102429,0.882,0.96,1.104,19.486,-0.1212,0.09975048872060728,-0.258,-0.116,0.134,-2.424,0.0365,0.04661705696416281,-0.05,0.041999999999999996,0.108,0.73,-98.5,1.5,-100.0,,-97.0,-788.0,-76.3,3.3778691508109073,-82.0,-75.0,-72.0,-1526.0,,,,,,0.0,,,,,,0.0
0.9576,0.016965848048358784,0.926,0.958,0.992,19.152,-0.2151,0.03852518656671244,-0.272,-0.218,-0.122,-4.3020000000000005,0.05800000000000001,0.026374229846575614,0.03,0.05,0.126,1.1600000000000001,-95.0,0.0,-95.0,,-95.0,-380.0,-72.6,0.4898979485566356,-73.0,-73.0,-72.0,-1452.0,,,,,,0.0,,,,,,0.0
0.9647000000000002,0.007778817390837769,0.944,0.966,0.976,19.294000000000004,-0.1966,0.008224354077980833,-0.21,-0.195,-0.182,-3.932,0.05800000000000001,0.011117553687749837,0.04,0.056,0.076,1.1600000000000001,-96.0,0.0,-96.0,,-96.0,-768.0,-72.2,1.5999999999999999,-73.0,-73.0,-69.0,-1444.0,,,,,,0.0,,,,,,0.0
0.9645999999999999,0.009941830817309245,0.93,0.966,0.978,19.291999999999998,-0.18500000000000003,0.007681145747868612,-0.2,-0.185,-0.168,-3.7000000000000006,0.052500000000000005,0.009692780818733085,0.032,0.054,0.066,1.05,-96.0,0.0,-96.0,,-96.0,-384.0,-73.0,0.0,-73.0,-73.0,-73.0,-1460.0,,,,,,0.0,,,,,,0.0
0.9691000000000001,0.0058472215624174925,0.96,0.968,0.984,19.382,-0.1779,0.007495998932764065,-0.196,-0.177,-0.162,-3.558,0.04740000000000001,0.006726068688320096,0.032,0.048,0.062,0.9480000000000002,-96.0,1.0,-97.0,,-95.0,-768.0,-75.9,6.564297372910524,-89.0,-73.0,-72.0,-1518.0,,,,,,0.0,,,,,,0.0
0.9001000000000001,0.11545817424504855,0.678,0.951,1.016,18.002000000000002,-0.1082,0.08168451505640467,-0.194,-0.118,0.126,-2.164,0.052400000000000016,0.028168067026333204,-0.004,0.052,0.128,1.0480000000000003,-94.0,0.0,-94.0,,-94.0,-376.0,-76.0,6.115553940568262,-86.0,-74.0,-70.0,-1520.0,,,,,,0.0,,,,,,0.0
1.055,0.22878068100257068,0.748,1.0070000000000001,1.728,21.099999999999998,-0.11870000000000003,0.1865049865285108,-0.352,-0.14100000000000001,0.352,-2.3740000000000006,-0.0147,0.05462700797224757,-0.104,-0.013000000000000001,0.112,-0.294,-97.66666666666667,2.357022603955158,-101.0,,-96.0,-586.0,-76.1,3.419064199455751,-82.0,-75.0,-71.0,-1522.0,-99.0,0.0,-99.0,,-99.0,-396.0,,,,,,0.0
0.9532999999999999,0.06765286394529062,0.818,0.973,1.068,19.066,0.07930000000000001,0.09911059479187884,-0.074,0.08,0.29,1.586,0.020999999999999998,0.039892355157348125,-0.064,0.027,0.072,0.42,-99.0,2.0,-101.0,,-97.0,-396.0,-79.0,1.8973665961010275,-83.0,-79.5,-77.0,-1580.0,-98.0,0.0,-98.0,,-98.0,-392.0,,,,,,0.0
0.9787000000000001,0.010849423947841665,0.962,0.978,0.994,19.574,-0.08010000000000002,0.022711010545548162,-0.11,-0.086,-0.032,-1.6020000000000003,0.03700000000000001,0.006708203932499369,0.028,0.036000000000000004,0.054,0.7400000000000002,-99.66666666666667,1.8856180831641267,-101.0,,-97.0,-598.0,-82.9,1.445683229480096,-85.0,-82.5,-81.0,-1658.0,,,,,,0.0,,,,,,0.0
0.9551578947368421,0.02001384562298056,0.91,0.958,0.992,18.148,-0.14031578947368423,0.05061001838785318,-0.276,-0.128,-0.068,-2.6660000000000004,0.032421052631578955,0.013925802592286565,-0.002,0.03,0.054,0.6160000000000001,-100.0,0.0,-100.0,,-100.0,-400.0,-81.52631578947368,3.234166630681519,-86.0,-82.0,-78.0,-1549.0,-100.0,0.0,-100.0,,-100.0,-200.0,,,,,,0.0
0.9166000000000001,0.2208801484968715,0.006,0.952,1.11,18.332,-0.23200000000000004,0.6808726753218989,-1.022,-0.35,1.816,-4.640000000000001,0.0431,0.17829130657438125,-0.624,0.076,0.274,0.862,,,,,,0.0,-75.2,2.181742422927143,-78.0,-75.0,-72.0,-1504.0,-100.0,0.0,-100.0,,-100.0,-200.0,,,,,,0.0
1.043578947368421,0.18370981573909426,0.824,1.032,1.568,19.828,-0.3315789473684211,0.16339758285575248,-0.73,-0.32,0.08,-6.300000000000001,0.03221052631578948,0.06461837684466223,-0.09,0.032,0.16,0.6120000000000001,,,,,,0.0,-71.42105263157895,2.413030186599505,-76.0,-72.0,-68.0,-1357.0,,,,,,0.0,,,,,,0.0
0.8494999999999999,0.17603735399056644,0.464,0.962,0.992,16.99,-0.26959999999999995,0.06996170381001308,-0.378,-0.271,-0.148,-5.3919999999999995,0.08940000000000001,0.04597434066955176,0.028,0.091,0.216,1.788,-99.0,0.0,-99.0,,-99.0,-792.0,-75.4,3.0066592756745814,-81.0,-74.0,-73.0,-1508.0,,,,,,0.0,,,,,,0.0
0.9517,0.01284172885557079,0.928,0.951,0.974,19.034,-0.2633,0.023902091958655006,-0.328,-0.263,-0.226,-5.266,0.08830000000000002,0.018775249665450525,0.048,0.088,0.134,1.7660000000000005,-98.0,0.0,-98.0,,-98.0,-784.0,-72.0,0.7745966692414834,-73.0,-72.0,-71.0,-1440.0,,,,,,0.0,,,,,,0.0
0.9522,0.011276524287208331,0.928,0.952,0.968,19.044,-0.25040000000000007,0.013499629624548964,-0.282,-0.25,-0.222,-5.008000000000001,0.06860000000000002,0.01400142849854971,0.048,0.068,0.098,1.3720000000000003,-96.0,0.0,-96.0,,-96.0,-384.0,-71.5,0.9219544457292888,-74.0,-71.0,-71.0,-1430.0,,,,,,0.0,,,,,,0.0
0.9337000000000002,0.032791919736422856,0.87,0.945,0.966,18.674000000000003,-0.3122,0.09997979795938779,-0.532,-0.261,-0.154,-6.244,0.13430000000000003,0.06141750564781998,0.054,0.14200000000000002,0.28,2.6860000000000004,-103.0,0.0,-103.0,,-103.0,-412.0,-76.7,3.716180835212409,-84.0,-75.0,-74.0,-1534.0,-105.0,0.0,-105.0,,-105.0,-420.0,,,,,,0.0
0.8999,0.0766276059915746,0.75,0.895,1.022,17.998,0.22440000000000002,0.2537483793051692,-0.098,0.188,1.062,4.488,-0.11200000000000002,0.10580170130957253,-0.27,-0.132,0.096,-2.24,,,,,,0.0,-74.4,3.261901286060018,-78.0,-76.0,-69.0,-1488.0,-98.0,0.0,-98.0,,-98.0,-392.0,,,,,,0.0
0.9794,0.11990179314755893,0.872,0.946,1.346,19.588,-0.2123,0.1474927455843168,-0.35,-0.27,0.158,-4.2459999999999996,0.179,0.07980350869479362,-0.078,0.199,0.292,3.58,,,,,,0.0,-79.3,4.817675788178362,-86.0,-80.0,-71.0,-1586.0,,,,,,0.0,,,,,,0.0
0.9241000000000001,0.00746927037936102,0.91,0.924,0.94,18.482000000000003,-0.3196,0.014164744967700623,-0.35,-0.319,-0.29,-6.392,0.22119999999999998,0.018755265927200285,0.19,0.224,0.254,4.4239999999999995,,,,,,0.0,-85.0,0.7745966692414834,-86.0,-85.0,-84.0,-1700.0,,,,,,0.0,,,,,,0.0
0.8611000000000001,0.019281856757065712,0.824,0.86,0.914,17.222,-0.3806,0.025393700006103876,-0.41,-0.39,-0.318,-7.612,0.3554,0.028636340548331238,0.27,0.363,0.39,7.108,,,,,,0.0,-82.1,2.211334438749598,-85.0,-83.0,-79.0,-1642.0,,,,,,0.0,,,,,,0.0
0.8764999999999998,0.041351541688309526,0.832,0.866,1.0,17.529999999999998,-0.38830000000000003,0.012841728855570816,-0.416,-0.39,-0.362,-7.766000000000001,0.37960000000000005,0.06125226526423328,0.334,0.358,0.6,7.5920000000000005,,,,,,0.0,-86.4,3.5552777669262356,-97.0,-85.0,-85.0,-1728.0,,,,,,0.0,,,,,,0.0
0.8551000000000002,0.2434678418189967,0.486,0.815,1.382,17.102000000000004,-0.13,0.3219024697016163,-1.048,-0.101,0.4,-2.6,-0.029200000000000014,0.44701516752790393,-0.49,-0.23399999999999999,1.182,-0.5840000000000003,,,,,,0.0,-75.4,7.605261336732617,-97.0,-74.0,-69.0,-1508.0,,,,,,0.0,,,,,,0.0
0.5466999999999999,0.30694968643085463,0.126,0.563,1.006,10.933999999999997,-0.7043000000000001,0.2588383858704114,-1.092,-0.705,-0.234,-14.086000000000002,0.2996,0.35179232510104597,-0.808,0.394,0.662,5.992,,,,,,0.0,-67.6,1.2,-69.0,-67.0,-66.0,-1352.0,,,,,,0.0,,,,,,0.0
-0.015000000000000008,0.14415061567679827,-0.36,0.038,0.128,-0.30000000000000016,-0.51,0.2287129204920439,-0.872,-0.501,0.076,-10.200000000000001,0.8936999999999999,0.22065019827772647,0.432,0.88,1.31,17.874,,,,,,0.0,-72.8,1.6613247725836147,-75.0,-73.0,-69.0,-1456.0,-102.0,0.0,-102.0,,-102.0,-816.0,,,,,,0.0
-0.31537499999999996,0.07345311004307442,-0.552,-0.306,-0.234,-5.045999999999999,0.601625,0.4246729440110354,-0.688,0.714,1.188,9.626,-0.406,0.46623920899040655,-1.044,-0.481,0.95,-6.496,,,,,,0.0,-72.625,8.350711047569542,-94.0,-69.0,-68.0,-1162.0,,,,,,0.0,,,,,,0.0
-0.2536999999999999,0.1858174103791138,-0.48,-0.316,0.304,-5.073999999999999,0.4343,0.28291643642602315,-0.104,0.554,0.712,8.686,-0.6591,0.23066900528679618,-1.072,-0.5409999999999999,-0.434,-13.182,,,,,,0.0,-73.8,6.881860213634101,-94.0,-71.5,-70.0,-1476.0,,,,,,0.0,,,,,,0.0
-0.28070000000000006,0.28336991724599137,-1.24,-0.184,0.006,-5.614000000000001,0.0482,0.10519106425928013,-0.104,0.005,0.254,0.964,-0.8251,0.13182181154877215,-0.968,-0.883,-0.552,-16.502,,,,,,0.0,-70.1,1.0440306508910548,-72.0,-70.0,-69.0,-1402.0,,,,,,0.0,,,,,,0.0
-0.15969999999999998,0.08000068749704593,-0.296,-0.176,0.024,-3.1939999999999995,0.0718,0.06909384921973881,-0.09,0.092,0.178,1.436,-0.8369000000000002,0.10148591035212721,-1.018,-0.812,-0.69,-16.738000000000003,,,,,,0.0,-69.8,1.077032961426901,-71.0,-70.0,-68.0,-1396.0,,,,,,0.0,,,,,,0.0
-0.19990000000000002,0.04150409618338893,-0.296,-0.198,-0.114,-3.998,0.18270000000000003,0.08662626622451183,-0.018,0.225,0.264,3.6540000000000004,-0.8661,0.06727696485425008,-1.016,-0.835,-0.756,-17.322,,,,,,0.0,-68.5,0.9219544457292888,-71.0,-68.0,-68.0,-1370.0,,,,,,0.0,,,,,,0.0
-0.18359999999999999,0.006651315659326362,-0.196,-0.184,-0.174,-3.6719999999999997,0.25329999999999997,0.009236341266973636,0.236,0.255,0.268,5.065999999999999,-0.8295,0.00871492971859211,-0.846,-0.829,-0.81,-16.59,,,,,,0.0,-69.6,3.1999999999999997,-76.0,-68.0,-68.0,-1392.0,,,,,,0.0,,,,,,0.0
-0.17729999999999996,0.007078841713161835,-0.194,-0.178,-0.162,-3.5459999999999994,0.26399999999999996,0.010583005244258367,0.238,0.264,0.284,5.279999999999999,-0.8286,0.009759098319004691,-0.848,-0.826,-0.814,-16.572,,,,,,0.0,-68.0,0.0,-68.0,-68.0,-68.0,-1360.0,,,,,,0.0,,,,,,0.0
-0.1883,0.007778817390837763,-0.2,-0.19,-0.17,-3.766,0.2318,0.009734474818910365,0.216,0.231,0.262,4.636,-0.8331,0.01725659294298848,-0.868,-0.835,-0.792,-16.662,,,,,,0.0,-68.2,0.39999999999999997,-69.0,-68.0,-68.0,-1364.0,,,,,,0.0,,,,,,0.0
-0.1897,0.005736723803705392,-0.2,-0.19,-0.178,-3.794,0.23440000000000003,0.005499090833947002,0.224,0.236,0.242,4.688000000000001,-0.8312000000000002,0.005192301994298872,-0.84,-0.832,-0.824,-16.624000000000002,,,,,,0.0,-68.7,0.45825756949558394,-69.0,-69.0,-68.0,-1374.0,,,,,,0.0,,,,,,0.0
-0.2834,0.05323945905059517,-0.35,-0.304,-0.178,-5.667999999999999,0.13809999999999997,0.05361147265278207,0.048,0.126,0.24,2.7619999999999996,-0.8208,0.04881147406092137,-0.9,-0.832,-0.708,-16.416,,,,,,0.0,-70.7,1.4177446878757824,-74.0,-70.0,-69.0,-1414.0,,,,,,0.0,,,,,,0.0
-0.40679999999999994,0.04888517157584701,-0.498,-0.393,-0.322,-8.136,-0.2379,0.13369439030864386,-0.354,-0.292,0.142,-4.758,-0.7533000000000001,0.05199721146369293,-0.906,-0.744,-0.672,-15.066,,,,,,0.0,-73.9,1.0440306508910548,-75.0,-74.0,-72.0,-1478.0,,,,,,0.0,,,,,,0.0
-0.35075,0.013150570329837404,-0.374,-0.345,-0.338,-2.806,-0.3105,0.0051720402163943045,-0.316,-0.314,-0.302,-2.484,-0.7562500000000001,0.011377060252982765,-0.77,-0.761,-0.738,-6.050000000000001,,,,,,0.0,-75.75,0.4330127018922193,-76.0,-76.0,-75.0,-606.0,,,,,,0.0,,,,,,0.0
-0.33877777777777773,0.004625479621444128,-0.346,-0.338,-0.328,-6.097999999999999,-0.30999999999999994,0.005811865258054236,-0.322,-0.311,-0.296,-5.579999999999999,-0.766,0.011680943645290164,-0.784,-0.767,-0.736,-13.788,,,,,,0.0,-82.44444444444444,10.996071127767117,-103.0,-77.0,-76.0,-1484.0,,,,,,0.0,,,,,,0.0
-0.34011111111111114,0.004241185485331604,-0.346,-0.339,-0.334,-6.122000000000001,-0.30866666666666664,0.00461880215351701,-0.314,-0.309,-0.298,-5.556,-0.7638888888888888,0.008204936785516455,-0.78,-0.762,-0.752,-13.749999999999998,,,,,,0.0,-76.33333333333333,0.4714045207910317,-77.0,-76.0,-76.0,-1374.0,,,,,,0.0,,,,,,0.0
-0.342125,0.0074989582609853046,-0.36,-0.34299999999999997,-0.328,-5.474,-0.31062500000000004,0.0068087719156981665,-0.322,-0.313,-0.298,-4.970000000000001,-0.76125,0.007901740314639562,-0.776,-0.762,-0.748,-12.18,,,,,,0.0,-76.125,0.33071891388307384,-77.0,-76.0,-76.0,-1218.0,,,,,,0.0,,,,,,0.0
-0.33940000000000003,0.006069596362197394,-0.35,-0.34,-0.324,-6.788,-0.3057,0.005109794516416492,-0.314,-0.306,-0.296,-6.114000000000001,-0.7685,0.009957409301620585,-0.784,-0.77,-0.75,-15.37,,,,,,0.0,-76.0,0.0,-76.0,-76.0,-76.0,-1520.0,,,,,,0.0,,,,,,0.0
-0.33419999999999994,0.6224207258759946,-1.872,-0.34199999999999997,0.87,-6.683999999999999,-0.1679,0.316052827862685,-0.782,-0.246,0.57,-3.358,-0.18159999999999998,0.9289057218038869,-1.138,-0.648,2.27,-3.6319999999999997,,,,,,0.0,-77.0,9.16515138991168,-95.0,-73.0,-70.0,-1540.0,,,,,,0.0,,,,,,0.0
0.6597,0.3400295722433565,0.03,0.802,1.038,13.193999999999999,-0.3909,0.41613866679269307,-1.602,-0.376,0.268,-7.8180000000000005,0.5306000000000001,0.28295448397224593,0.2,0.399,1.022,10.612000000000002,,,,,,0.0,-70.3,3.9255572852781047,-81.0,-69.0,-67.0,-1406.0,,,,,,0.0,,,,,,0.0
0.9396842105263158,0.08375971436611111,0.83,0.936,1.134,17.854,0.10473684210526317,0.1400093388258396,-0.16,0.11,0.376,1.9900000000000002,0.1631578947368421,0.1260147289460932,-0.026,0.158,0.38,3.1,,,,,,0.0,-71.78947368421052,3.4117281832930213,-81.0,-71.0,-69.0,-1364.0,,,,,,0.0,,,,,,0.0
0.9396999999999999,0.03953365654730156,0.824,0.945,1.022,18.793999999999997,-0.20450000000000004,0.07102640354121839,-0.324,-0.214,0.04,-4.090000000000001,0.3217,0.017149635564641018,0.294,0.317,0.352,6.433999999999999,-103.0,0.0,-103.0,,-103.0,-412.0,-72.35,0.7262919523166974,-74.0,-72.0,-72.0,-1447.0,,,,,,0.0,,,,,,0.0
0.9272,0.0075471849056452794,0.904,0.928,0.942,18.544,-0.22800000000000004,0.008294576541331089,-0.25,-0.226,-0.212,-4.5600000000000005,0.30369999999999997,0.009127431182978046,0.28,0.304,0.318,6.074,-104.0,0.0,-104.0,,-104.0,-416.0,-72.8,0.39999999999999997,-73.0,-73.0,-72.0,-1456.0,,,,,,0.0,,,,,,0.0
0.9347999999999999,0.008158431221748424,0.926,0.934,0.962,18.695999999999998,-0.23410000000000003,0.007306846104852621,-0.25,-0.235,-0.222,-4.682,0.28900000000000003,0.011618950038622242,0.262,0.29,0.31,5.78,-103.0,0.0,-103.0,,-103.0,-412.0,-72.8,0.4,-73.0,-73.0,-72.0,-1456.0,,,,,,0.0,,,,,,0.0
0.9797,0.08937846496779858,0.792,0.984,1.138,19.594,0.18580000000000002,0.2871667808086444,-0.218,0.18,0.838,3.716,0.1631,0.13708460890997207,-0.056,0.158,0.38,3.262,-103.0,0.0,-103.0,,-103.0,-412.0,-71.0,1.4142135623730951,-73.0,-71.0,-69.0,-1420.0,-96.0,0.0,-96.0,,-96.0,-384.0,,,,,,0.0
0.9027000000000001,0.1757296503154775,0.608,0.975,1.2,18.054000000000002,-0.0844,0.10779165088261707,-0.222,-0.112,0.136,-1.6880000000000002,0.0846,0.09856997514456417,-0.122,0.074,0.3,1.692,,,,,,0.0,-74.2,2.4000000000000004,-79.0,-73.0,-73.0,-1484.0,,,,,,0.0,,,,,,0.0
0.9761,0.025294070451392356,0.898,0.983,1.01,19.522,-0.049,0.04984576210672278,-0.156,-0.046,0.05,-0.98,0.018500000000000003,0.048120162094490083,-0.068,0.012,0.128,0.37000000000000005,-103.0,0.0,-103.0,,-103.0,-412.0,-73.3,1.6462077633154326,-75.0,-73.0,-71.0,-1466.0,,,,,,0.0,,,,,,0.0
0.9848000000000001,0.018247191564731285,0.942,0.99,1.02,19.696,-0.054000000000000006,0.014615060725156087,-0.084,-0.056,-0.018,-1.08,0.029100000000000004,0.023043220261065946,-0.042,0.034,0.06,0.5820000000000001,,,,,,0.0,-74.55,0.4974937185533099,-75.0,-75.0,-74.0,-1491.0,,,,,,0.0,,,,,,0.0
0.9814000000000002,0.007722693830523136,0.968,0.98,0.998,19.628000000000004,-0.0551,0.00783517708797957,-0.064,-0.058,-0.032,-1.102,0.04860000000000001,0.004983974317750845,0.04,0.048,0.06,0.9720000000000002,,,,,,0.0,-75.1,0.6244997998398398,-76.0,-75.0,-74.0,-1502.0,-102.0,0.0,-102.0,,-102.0,-408.0,,,,,,0.0
0.9802000000000002,0.00612862137841783,0.966,0.982,0.988,19.604000000000003,-0.05440000000000002,0.007735631842325485,-0.074,-0.053,-0.04,-1.0880000000000003,0.050900000000000015,0.006526101439603893,0.036,0.054,0.06,1.0180000000000002,-103.0,0.0,-103.0,,-103.0,-412.0,-75.8,0.39999999999999997,-76.0,-76.0,-75.0,-1516.0,-103.5,1.5,-105.0,,-102.0,-828.0,,,,,,0.0
0.9790999999999999,0.012529565036345027,0.934,0.979,0.994,19.581999999999997,-0.06400000000000002,0.008854377448471461,-0.08,-0.064,-0.05,-1.2800000000000002,0.053800000000000014,0.0075073297516493834,0.046,0.053000000000000005,0.076,1.0760000000000003,,,,,,0.0,-76.65,0.47696960070847283,-77.0,-77.0,-76.0,-1533.0,-100.0,0.0,-100.0,,-100.0,-400.0,,,,,,0.0
0.9773999999999999,0.02240624912831238,0.926,0.982,1.016,19.548,-0.08979999999999999,0.06336844640670938,-0.264,-0.063,-0.032,-1.7959999999999998,0.056900000000000006,0.02647621574168031,0.03,0.047,0.134,1.1380000000000001,,,,,,0.0,-80.1,3.9736632972611052,-87.0,-78.0,-75.0,-1602.0,-104.0,0.0,-104.0,,-104.0,-416.0,,,,,,0.0
0.9605263157894737,0.06921466867731726,0.808,0.966,1.094,18.25,0.08031578947368423,0.16052055209669994,-0.222,0.062,0.366,1.5260000000000002,0.00263157894736842,0.04480156309105367,-0.058,-0.014,0.088,0.04999999999999998,,,,,,0.0,-75.10526315789474,1.8888798363080381,-78.0,-75.0,-72.0,-1427.0,,,,,,0.0,,,,,,0.0
0.584,0.12846789482201382,0.432,0.563,0.824,11.68,0.7272,0.13049812259185953,0.348,0.772,0.834,14.543999999999999,-0.15419999999999998,0.046856803134656975,-0.21,-0.169,-0.05,-3.0839999999999996,,,,,,0.0,-75.35,0.7921489758877429,-76.0,-76.0,-74.0,-1507.0,,,,,,0.0,,,,,,0.0
0.44279999999999997,0.01478377489006107,0.422,0.44,0.478,8.856,0.8172,0.01738275007011258,0.774,0.816,0.844,16.344,-0.1962,0.0088068155425216,-0.218,-0.196,-0.18,-3.9240000000000004,,,,,,0.0,-73.45,1.023474474522936,-75.0,-74.0,-72.0,-1469.0,,,,,,0.0,,,,,,0.0
0.46130000000000004,0.014550257729676122,0.438,0.464,0.48,9.226,0.8013999999999999,0.01678213335663853,0.758,0.801,0.824,16.028,-0.20660000000000003,0.017402298698735177,-0.238,-0.208,-0.174,-4.132000000000001,,,,,,0.0,-71.1,0.7681145747868607,-72.0,-71.0,-70.0,-1422.0,,,,,,0.0,,,,,,0.0
0.46049999999999996,0.013384692749555364,0.414,0.462,0.478,9.209999999999999,0.7918,0.01674395413276088,0.742,0.796,0.816,15.835999999999999,-0.2379,0.01139254141971843,-0.256,-0.241,-0.212,-4.758,,,,,,0.0,-69.55,0.4974937185533099,-70.0,-70.0,-69.0,-1391.0,,,,,,0.0,,,,,,0.0
0.46610000000000007,0.011304423912787404,0.444,0.464,0.486,9.322000000000001,0.7888,0.017359723500102186,0.742,0.791,0.822,15.776,-0.2325,0.009074690077352501,-0.25,-0.232,-0.208,-4.65,,,,,,0.0,-69.4,0.8,-71.0,-69.0,-69.0,-1388.0,,,,,,0.0,,,,,,0.0
0.5235000000000001,0.06998249781195295,0.456,0.491,0.718,10.47,0.769,0.029233542378576047,0.702,0.774,0.808,15.38,-0.22150000000000003,0.024938925397859472,-0.258,-0.228,-0.158,-4.430000000000001,,,,,,0.0,-70.95,2.2017038856304,-75.0,-70.0,-69.0,-1419.0,,,,,,0.0,,,,,,0.0
0.9016,0.08945300442131612,0.748,0.917,1.062,18.032,0.15610000000000004,0.2863518639715831,-0.416,0.139,0.668,3.1220000000000008,-0.016100000000000003,0.07499726661685745,-0.128,-0.013000000000000001,0.144,-0.32200000000000006,,,,,,0.0,-75.05,1.9868316486305526,-78.0,-74.0,-72.0,-1501.0,,,,,,0.0,,,,,,0.0
0.9715999999999999,0.01678809101714665,0.928,0.974,1.016,19.432,-0.1627,0.023343307392055652,-0.194,-0.168,-0.12,-3.254,0.06450000000000002,0.010409130607308184,0.048,0.062,0.082,1.2900000000000003,,,,,,0.0,-75.3,0.9539392014169458,-77.0,-75.0,-74.0,-1506.0,,,,,,0.0,,,,,,0.0
0.974,0.009208691546577078,0.942,0.974,0.984,19.48,-0.14040000000000002,0.008475848040166833,-0.162,-0.14,-0.126,-2.8080000000000003,0.06470000000000001,0.009864583113340371,0.054,0.062,0.096,1.2940000000000003,,,,,,0.0,-74.05,1.532155344604456,-76.0,-75.0,-72.0,-1481.0,,,,,,0.0,,,,,,0.0
0.9721,0.006737210105080594,0.96,0.974,0.984,19.442,-0.13940000000000002,0.006959885056522121,-0.154,-0.138,-0.128,-2.7880000000000003,0.060300000000000006,0.006611353870426238,0.048,0.061,0.078,1.2060000000000002,-104.0,0.0,-104.0,,-104.0,-416.0,-72.95,2.5588083163847974,-78.0,-72.0,-71.0,-1459.0,,,,,,0.0,,,,,,0.0
0.9744999999999999,0.007067531393633854,0.958,0.974,0.994,19.49,-0.1345,0.007426304599193328,-0.146,-0.136,-0.116,-2.6900000000000004,0.06300000000000001,0.009539392014169456,0.04,0.064,0.08,1.2600000000000002,,,,,,0.0,-70.75,0.4330127018922193,-71.0,-71.0,-70.0,-1415.0,,,,,,0.0,,,,,,0.0
0.9119999999999999,0.12855193503016593,0.696,0.932,1.174,18.24,-0.0668,0.05165423506354537,-0.122,-0.077,0.072,-1.336,-0.0787,0.08881953613929765,-0.288,-0.062,0.048,-1.574,-102.0,0.0,-102.0,,-102.0,-408.0,-76.6,10.071742649611336,-96.0,-72.0,-68.0,-1532.0,,,,,,0.0,,,,,,0.0
0.9574,0.12154028138851743,0.792,0.919,1.214,19.148,-0.0748,0.23626290440947345,-0.526,-0.037,0.382,-1.496,-0.2597,0.08684071625683427,-0.404,-0.262,-0.036,-5.194,-104.0,0.0,-104.0,,-104.0,-416.0,-83.2,5.173006862551026,-92.0,-80.0,-78.0,-1664.0,-98.0,0.0,-98.0,,-98.0,-392.0,,,,,,0.0
0.9232999999999999,0.011371455491712562,0.902,0.926,0.946,18.465999999999998,0.04850000000000001,0.027238759149417948,0.006,0.045,0.126,0.9700000000000002,-0.2683,0.024349743325135894,-0.338,-0.261,-0.234,-5.366,,,,,,0.0,-77.55,1.909842925478428,-82.0,-77.0,-76.0,-1551.0,,,,,,0.0,,,,,,0.0
0.9211,0.014635231463834102,0.892,0.923,0.944,18.422,0.0122,0.016599999999999997,-0.018,0.014,0.048,0.24400000000000002,-0.26260000000000006,0.011612062693595828,-0.288,-0.26,-0.248,-5.252000000000001,,,,,,0.0,-76.75,0.8874119674649424,-80.0,-77.0,-76.0,-1535.0,,,,,,0.0,,,,,,0.0
0.922125,0.02386910922091563,0.862,0.926,0.966,14.754,0.012499999999999999,0.11792900406600575,-0.114,-0.013,0.454,0.19999999999999998,-0.256625,0.033411964548646346,-0.32,-0.258,-0.168,-4.106,-104.0,0.0,-104.0,,-104.0,-416.0,-77.4375,1.4986973510352248,-80.0,-77.0,-75.0,-1239.0,,,,,,0.0,,,,,,0.0
0.9262,0.2809319490552828,0.496,0.929,1.606,18.524,-0.09910000000000004,0.1671543897120264,-0.48,-0.014,0.134,-1.9820000000000007,-0.14830000000000004,0.16296045532582437,-0.312,-0.216,0.236,-2.9660000000000006,,,,,,0.0,-75.5,1.9364916731037085,-79.0,-75.0,-73.0,-1510.0,,,,,,0.0,,,,,,0.0
0.9179,0.3796606247690166,0.014,0.946,1.79,18.358,0.1442,0.36674999659168367,-0.592,0.10500000000000001,1.1,2.884,-0.33920000000000006,0.21457064104858334,-0.752,-0.344,0.152,-6.784000000000001,,,,,,0.0,-73.85,5.9268457040824005,-85.0,-73.0,-69.0,-1477.0,,,,,,0.0,,,,,,0.0
0.9383000000000001,0.12496283447489501,0.7,0.98,1.098,18.766000000000002,-0.1675,0.06689058229676283,-0.378,-0.156,-0.078,-3.35,0.013199999999999998,0.10292793595521092,-0.128,0.005,0.318,0.26399999999999996,,,,,,0.0,-73.3,2.215851980616034,-77.0,-73.0,-70.0,-1466.0,,,,,,0.0,,,,,,0.0
0.9652999999999998,0.06797433339136177,0.83,0.976,1.148,19.305999999999997,-0.1686,0.09310445746579485,-0.336,-0.179,0.034,-3.372,0.03710000000000001,0.0637384499340861,-0.09,0.036000000000000004,0.27,0.7420000000000002,-99.0,1.0,-100.0,,-98.0,-792.0,-76.05,1.8567444627627143,-78.0,-76.0,-72.0,-1521.0,,,,,,0.0,,,,,,0.0
0.9653,0.015023648025696022,0.924,0.964,0.992,19.306,-0.17700000000000002,0.021711747972008148,-0.232,-0.175,-0.136,-3.5400000000000005,0.04940000000000001,0.00785111457055621,0.034,0.048,0.07,0.9880000000000002,-96.0,1.0,-97.0,,-95.0,-768.0,-80.5,3.024896692450835,-86.0,-79.0,-77.0,-1610.0,,,,,,0.0,,,,,,0.0
0.9720000000000001,0.008294576541331096,0.956,0.974,0.984,19.44,-0.1702,0.022116961816669122,-0.194,-0.179,-0.116,-3.404,0.0374,0.010297572529484801,0.012,0.038,0.054,0.748,-97.0,0.0,-97.0,,-97.0,-388.0,-79.55,3.6534230524263136,-83.0,-81.0,-70.0,-1591.0,,,,,,0.0,,,,,,0.0
0.9273000000000001,0.05072386026319369,0.818,0.94,1.0,18.546000000000003,-0.15460000000000002,0.1738253146121128,-0.41,-0.217,0.27,-3.0920000000000005,0.1129,0.10046586484970904,-0.042,0.095,0.31,2.258,,,,,,0.0,-75.3125,3.440907402125201,-79.0,,-70.0,-1205.0,-103.0,0.0,-103.0,,-103.0,-412.0,,,,,,0.0
0.9785000000000001,0.17744731612509668,0.8,0.941,1.504,19.570000000000004,0.16050000000000003,0.2854525354590497,-0.392,0.118,0.892,3.210000000000001,-0.003100000000000003,0.18875113244693395,-0.408,-0.025,0.334,-0.062000000000000055,,,,,,0.0,-71.8,1.4,-75.0,-71.0,-71.0,-1436.0,,,,,,0.0,,,,,,0.0
0.687,0.32350054095781666,-0.264,0.81,1.074,13.740000000000002,-0.6395000000000001,0.2586285947067725,-1.164,-0.531,-0.312,-12.790000000000001,0.5759999999999998,0.30172769180173037,0.232,0.41400000000000003,1.136,11.519999999999998,,,,,,0.0,-73.35,1.9306734576307822,-76.0,-73.0,-70.0,-1467.0,-105.0,0.0,-105.0,,-105.0,-420.0,,,,,,0.0
-0.10869999999999999,0.2229989013425851,-0.46,-0.132,0.33,-2.174,0.6659,0.423053412703408,-0.446,0.8520000000000001,1.084,13.318000000000001,0.31920000000000004,0.14378233549362035,0.158,0.28200000000000003,0.774,6.384000000000001,,,,,,0.0,-74.5,2.5592967784139455,-78.0,-74.0,-70.0,-1490.0,,,,,,0.0,,,,,,0.0
-0.07180000000000002,0.03664368977054576,-0.128,-0.081,0.008,-1.4360000000000004,0.9223999999999999,0.07426600837529915,0.816,0.902,1.112,18.447999999999997,0.31350000000000006,0.07598914396148965,0.178,0.324,0.428,6.270000000000001,,,,,,0.0,-74.35,0.7262919523166974,-76.0,-74.0,-74.0,-1487.0,,,,,,0.0,,,,,,0.0
0.004900000000000003,0.09184655682169039,-0.176,0.009000000000000001,0.16,0.09800000000000007,0.7337,0.41328308699969807,-0.654,0.9259999999999999,1.016,14.674,0.17060000000000003,0.09652170740305001,0.016,0.17099999999999999,0.432,3.4120000000000004,-96.6,1.2,-99.0,,-96.0,-483.0,-73.25,1.840516231930596,-75.0,-74.0,-70.0,-1465.0,,,,,,0.0,,,,,,0.0
0.7802,0.31670863581531844,0.238,0.729,1.518,15.604000000000001,-0.4404,0.5072410078059542,-1.412,-0.371,0.384,-8.808,0.15309999999999999,0.722038080713199,-0.802,-0.192,1.292,3.062,-99.0,0.0,-99.0,,-99.0,-297.0,-73.45,1.16081867662439,-75.0,-74.0,-72.0,-1469.0,,,,,,0.0,,,,,,0.0
0.026500000000000003,0.41045480871832896,-0.498,-0.22099999999999997,0.72,0.53,-0.7807999999999999,0.22891867551600067,-1.21,-0.79,-0.096,-15.616,0.05000000000000001,0.2777948883618991,-0.346,-0.006,0.598,1.0000000000000002,,,,,,0.0,-71.85,2.9878922336657325,-75.0,-73.0,-68.0,-1437.0,,,,,,0.0,,,,,,0.0
-0.0777,0.1914975456761783,-0.59,-0.11399999999999999,0.336,-1.554,-0.8940999999999999,0.14359453332212893,-1.194,-0.898,-0.58,-17.881999999999998,0.45599999999999996,0.132,0.158,0.42,0.752,9.12,,,,,,0.0,-70.0,0.0,-70.0,-70.0,-70.0,-1400.0,,,,,,0.0,,,,,,0.0
-0.10980000000000001,0.059423564349507005,-0.238,-0.104,0.078,-2.196,-0.9162000000000001,0.03165375175235946,-0.968,-0.925,-0.84,-18.324,0.3746,0.04654932867399915,0.326,0.348,0.46,7.492,,,,,,0.0,-70.85,0.3570714214271425,-71.0,-71.0,-70.0,-1417.0,,,,,,0.0,,,,,,0.0
-0.10350000000000001,0.009505261700763424,-0.122,-0.10200000000000001,-0.082,-2.0700000000000003,-0.9247000000000002,0.008420807562223456,-0.946,-0.922,-0.914,-18.494000000000003,0.34950000000000003,0.012519984025548908,0.318,0.352,0.368,6.99,,,,,,0.0,-70.6,1.1135528725660042,-75.0,-70.0,-70.0,-1412.0,,,,,,0.0,,,,,,0.0
-0.15200000000000002,0.020630075133164203,-0.178,-0.159,-0.114,-3.0400000000000005,-0.8962,0.025580461293729644,-0.948,-0.893,-0.856,-17.924,0.4234,0.03359226101351322,0.368,0.421,0.478,8.468,,,,,,0.0,-72.05,1.3219304066402282,-75.0,-72.0,-71.0,-1441.0,,,,,,0.0,,,,,,0.0
-0.13924999999999998,0.24537509551704714,-0.378,-0.173,0.608,-2.2279999999999998,-0.787875,0.414375716439803,-1.424,-0.895,0.344,-12.606,0.40562500000000007,0.6724746161566248,-1.632,0.46799999999999997,1.092,6.490000000000001,,,,,,0.0,-75.0,5.5901699437494745,-84.0,-75.0,-68.0,-1200.0,,,,,,0.0,,,,,,0.0
