acceleration_x_mean,acceleration_x_std,acceleration_x_min,acceleration_x_median,acceleration_x_max,acceleration_x_sum,acceleration_y_mean,acceleration_y_std,acceleration_y_min,acceleration_y_median,acceleration_y_max,acceleration_y_sum,acceleration_z_mean,acceleration_z_std,acceleration_z_min,acceleration_z_median,acceleration_z_max,acceleration_z_sum,rssi_Kitchen_AP_mean,rssi_Kitchen_AP_std,rssi_Kitchen_AP_min,rssi_Kitchen_AP_median,rssi_Kitchen_AP_max,rssi_Kitchen_AP_sum,rssi_Lounge_AP_mean,rssi_Lounge_AP_std,rssi_Lounge_AP_min,rssi_Lounge_AP_median,rssi_Lounge_AP_max,rssi_Lounge_AP_sum,rssi_Upstairs_AP_mean,rssi_Upstairs_AP_std,rssi_Upstairs_AP_min,rssi_Upstairs_AP_median,rssi_Upstairs_AP_max,rssi_Upstairs_AP_sum,rssi_Study_AP_mean,rssi_Study_AP_std,rssi_Study_AP_min,rssi_Study_AP_median,rssi_Study_AP_max,rssi_Study_AP_sum
0.8932631578947369,0.007573097157307353,0.88,0.896,0.904,16.972,-0.37284210526315786,0.012162336850832995,-0.392,-0.376,-0.338,-7.084,0.25052631578947365,0.010111839965071858,0.216,0.252,0.262,4.76,-88.15789473684211,0.48808518397345807,-89.0,-88.0,-87.0,-1675.0,-75.78947368421052,0.4076824574955176,-76.0,-76.0,-75.0,-1440.0,-81.10526315789474,1.44712916682816,-87.0,-81.0,-80.0,-1541.0,,,,,,0.0
0.8906000000000001,0.010697663296253074,0.864,0.896,0.902,17.812,-0.3738,0.006630233781700316,-0.384,-0.376,-0.36,-7.476000000000001,0.2529,0.0106296754418938,0.226,0.253,0.27,5.058000000000001,-87.6,0.4898979485566356,-88.0,-88.0,-87.0,-1752.0,-75.7,0.45825756949558394,-76.0,-76.0,-75.0,-1514.0,-80.8,0.39999999999999997,-81.0,-81.0,-80.0,-1616.0,,,,,,0.0
0.8953000000000001,0.012300812981262671,0.862,0.897,0.91,17.906000000000002,-0.3712000000000001,0.0059799665550904265,-0.384,-0.37,-0.36,-7.424000000000001,0.2445,0.007559761901012495,0.232,0.244,0.262,4.89,-87.0,0.7745966692414834,-88.0,-87.0,-86.0,-1740.0,-75.2,0.39999999999999997,-76.0,-75.0,-75.0,-1504.0,-81.0,0.0,-81.0,-81.0,-81.0,-1620.0,,,,,,0.0
0.8946000000000002,0.009941830817309264,0.864,0.896,0.914,17.892000000000003,-0.371,0.008637129152675681,-0.388,-0.369,-0.354,-7.42,0.24899999999999997,0.018681541692269408,0.23,0.246,0.326,4.9799999999999995,-87.2,0.6,-88.0,-87.0,-86.0,-1744.0,-75.7,0.45825756949558394,-76.0,-76.0,-75.0,-1514.0,-81.0,0.0,-81.0,-81.0,-81.0,-1620.0,,,,,,0.0
0.8920999999999999,0.014825316185498384,0.846,0.896,0.908,17.842,-0.3702,0.00758683069535627,-0.384,-0.37,-0.354,-7.404,0.2512,0.008704022058795582,0.232,0.252,0.264,5.024,-88.0,0.6324555320336759,-89.0,-88.0,-87.0,-1760.0,-76.0,0.0,-76.0,-76.0,-76.0,-1520.0,-81.0,0.0,-81.0,-81.0,-81.0,-1620.0,,,,,,0.0
0.8923,0.026805036840116453,0.846,0.896,0.974,17.846,-0.35840000000000005,0.02603536056980967,-0.394,-0.365,-0.292,-7.168000000000001,0.23759999999999998,0.014705101155721443,0.208,0.24,0.26,4.752,-86.1,1.374772708486752,-88.0,-86.5,-83.0,-1722.0,-75.9,1.0440306508910548,-77.0,-76.0,-73.0,-1518.0,-83.4,3.4985711369071804,-93.0,-82.5,-81.0,-1668.0,,,,,,0.0
0.8915,0.025720614300595565,0.846,0.888,0.934,17.83,-0.4226,0.03216271132849343,-0.474,-0.421,-0.37,-8.452,0.1675,0.02586793381775978,0.124,0.165,0.236,3.35,-86.625,4.525966747557918,-94.0,,-83.0,-1386.0,-76.5,2.0124611797498106,-79.0,-76.5,-73.0,-1530.0,-82.4,3.6386810797320512,-93.0,-81.0,-80.0,-1648.0,,,,,,0.0
0.8855000000000001,0.013082430966758445,0.864,0.89,0.91,17.71,-0.4144000000000001,0.01243543324536784,-0.44,-0.414,-0.4,-8.288000000000002,0.1396,0.011791522378386935,0.126,0.136,0.176,2.7920000000000003,-91.3,5.386093203798093,-101.0,-90.0,-85.0,-1826.0,-76.3,1.1874342087037917,-78.0,-76.0,-75.0,-1526.0,-85.9,2.118962010041709,-88.0,-86.0,-83.0,-1718.0,,,,,,0.0
0.8834999999999997,0.012725957724273656,0.854,0.884,0.902,17.669999999999995,-0.4199,0.013348782716038192,-0.442,-0.423,-0.392,-8.398,0.1405,0.014897986441126868,0.112,0.146,0.158,2.81,-87.3,1.7349351572897471,-91.0,-86.0,-86.0,-1746.0,-75.0,0.0,-75.0,-75.0,-75.0,-1500.0,-84.7,1.1874342087037917,-88.0,-84.0,-84.0,-1694.0,,,,,,0.0
0.889,0.017011760637864633,0.858,0.884,0.92,17.78,-0.4175000000000001,0.00952627944162882,-0.436,-0.416,-0.402,-8.350000000000001,0.13379999999999997,0.008316249154516711,0.126,0.134,0.156,2.6759999999999997,-85.7,0.9,-88.0,-85.5,-85.0,-1714.0,-75.1,0.7000000000000001,-76.0,-75.0,-74.0,-1502.0,-87.7,2.570992026436488,-91.0,-88.0,-82.0,-1754.0,,,,,,0.0
0.9202000000000001,0.025914474719739133,0.88,0.913,0.972,18.404000000000003,-0.30899999999999994,0.09931666526822172,-0.424,-0.315,-0.142,-6.179999999999999,0.2144,0.07486681507851126,0.12,0.22,0.384,4.288,-84.75,1.7853571071357126,-87.0,,-82.0,-1356.0,-77.6,3.1368774282716245,-84.0,-77.5,-74.0,-1552.0,-83.7,5.814636704042652,-95.0,-81.5,-79.0,-1674.0,,,,,,0.0
0.9351999999999998,0.05267409230352242,0.854,0.916,1.072,18.703999999999997,-0.33999999999999997,0.14241629120293786,-0.85,-0.32,-0.138,-6.8,0.31799999999999995,0.16374125930870326,0.206,0.244,0.806,6.359999999999999,-86.11111111111111,3.1778554769055765,-92.0,,-84.0,-1550.0,-77.3,2.7586228448267445,-84.0,-76.0,-75.0,-1546.0,-86.7,6.783067152844648,-99.0,-83.0,-81.0,-1734.0,,,,,,0.0
-0.016625,0.6347963132966353,-0.702,-0.249,1.038,-0.266,-0.5976250000000001,0.4535356759671724,-1.36,-0.504,0.078,-9.562000000000001,0.472,0.19788885769542458,0.098,0.535,0.754,7.552,-93.5,3.5,-97.0,,-90.0,-748.0,-79.875,1.6909686573085854,-84.0,-79.0,-79.0,-1278.0,-88.0,7.837638128197259,-100.0,,-81.0,-1232.0,,,,,,0.0
-0.6811,0.04886501816228045,-0.752,-0.694,-0.542,-13.622000000000002,-0.4861,0.0803976989720477,-0.66,-0.481,-0.314,-9.722,0.5386,0.06271235922846469,0.414,0.554,0.656,10.772,-94.42857142857143,1.8405855323893037,-96.0,,-92.0,-1322.0,-75.5,2.9410882339705484,-84.0,-74.0,-74.0,-1510.0,-88.57142857142857,0.9035079029052512,-90.0,,-88.0,-1240.0,,,,,,0.0
-0.6689999999999999,0.08587316228019089,-0.842,-0.684,-0.498,-13.379999999999999,-0.39670000000000005,0.1237501919190431,-0.59,-0.437,-0.152,-7.934000000000001,0.6097,0.11452209393824409,0.414,0.584,0.816,12.194,-93.0,0.0,-93.0,,-93.0,-186.0,-75.6,1.3564659966250536,-78.0,-75.0,-74.0,-1512.0,-90.57142857142857,3.4582052676886295,-96.0,,-88.0,-1268.0,,,,,,0.0
0.1437,0.5294175195438852,-0.656,0.242,0.978,2.874,-0.5412999999999999,0.2937504212762937,-1.282,-0.462,0.038,-10.825999999999999,0.5863000000000002,0.3623784071933646,0.126,0.535,1.318,11.726000000000003,-93.22222222222223,3.8809442659051068,-98.0,,-89.0,-1678.0,-80.6,4.651881339845203,-86.0,-80.5,-74.0,-1612.0,-88.88888888888889,2.9228769862146455,-92.0,,-84.0,-1600.0,,,,,,0.0
0.5277000000000001,0.09900964599472115,0.336,0.526,0.796,10.554000000000002,-0.6974999999999999,0.06353857096284114,-0.864,-0.691,-0.586,-13.949999999999998,0.5603000000000001,0.07218386246246455,0.45,0.547,0.808,11.206000000000003,-89.4,1.3564659966250536,-91.0,-89.5,-87.0,-1788.0,-82.2,0.9797958971132713,-83.0,-83.0,-81.0,-1644.0,-94.5,3.2015621187164243,-98.0,,-91.0,-1134.0,,,,,,0.0
0.5344,0.01107429455992571,0.496,0.536,0.544,10.687999999999999,-0.6901999999999999,0.00787146746166174,-0.704,-0.69,-0.672,-13.803999999999998,0.5334000000000001,0.013741906709041522,0.492,0.534,0.562,10.668000000000001,-87.0,0.0,-87.0,,-87.0,-1044.0,-81.9,1.374772708486752,-84.0,-82.0,-80.0,-1638.0,-97.0,0.0,-97.0,,-97.0,-194.0,,,,,,0.0
0.5443,0.009279547402756244,0.518,0.546,0.556,10.886,-0.6799000000000002,0.0077323993688892985,-0.69,-0.68,-0.664,-13.598000000000003,0.5237,0.01638627474443171,0.494,0.526,0.558,10.474,-87.5,0.5,-88.0,,-87.0,-1400.0,-84.0,0.0,-84.0,-84.0,-84.0,-1680.0,-95.0,0.0,-95.0,,-95.0,-380.0,,,,,,0.0
0.5471,0.011584040745784703,0.528,0.551,0.562,10.942,-0.6803000000000001,0.006173329733620236,-0.69,-0.68,-0.67,-13.606000000000002,0.5252000000000001,0.01262378707044761,0.496,0.523,0.55,10.504000000000001,-88.8,0.6,-89.0,-89.0,-87.0,-1776.0,-83.9,0.3,-84.0,-84.0,-83.0,-1678.0,-90.0,0.0,-90.0,,-90.0,-540.0,,,,,,0.0
0.5462,0.01167732846159601,0.52,0.547,0.562,10.924,-0.6826000000000001,0.00710211236182585,-0.692,-0.682,-0.666,-13.652000000000001,0.5222000000000001,0.011931470990619733,0.488,0.525,0.544,10.444000000000003,-89.5,0.5,-90.0,-89.5,-89.0,-1790.0,-83.2,0.7483314773547882,-84.0,-83.0,-82.0,-1664.0,-90.5,0.5,-91.0,,-90.0,-362.0,,,,,,0.0
0.5427,0.020477060335897822,0.504,0.541,0.62,10.854,-0.6869000000000002,0.006081940479813949,-0.698,-0.688,-0.676,-13.738000000000003,0.5301000000000001,0.014635231463834124,0.496,0.532,0.558,10.602000000000002,-88.8,0.6,-90.0,-89.0,-88.0,-1776.0,-82.8,0.39999999999999997,-83.0,-83.0,-82.0,-1656.0,-90.6,0.4898979485566356,-91.0,,-90.0,-906.0,,,,,,0.0
0.5375,0.007399324293474377,0.52,0.538,0.55,10.75,-0.6887,0.007022107945624268,-0.702,-0.69,-0.676,-13.774,0.5263000000000002,0.012284543133547956,0.504,0.527,0.55,10.526000000000003,-88.9,0.30000000000000004,-89.0,-89.0,-88.0,-1778.0,-82.4,0.4898979485566356,-83.0,-82.0,-82.0,-1648.0,-90.6,0.4898979485566356,-91.0,,-90.0,-906.0,,,,,,0.0
0.5310000000000001,0.012024974012445943,0.504,0.536,0.544,10.620000000000003,-0.6925,0.0062249497989943494,-0.706,-0.692,-0.68,-13.85,0.5264,0.01092886087385141,0.496,0.525,0.55,10.528,-89.6,1.2,-93.0,-89.0,-89.0,-1792.0,-81.6,0.9165151389911679,-83.0,-82.0,-80.0,-1632.0,-93.5,2.5,-96.0,,-91.0,-374.0,,,,,,0.0
0.5369,0.011549458861782236,0.51,0.538,0.552,10.738000000000001,-0.6923,0.004112177038990402,-0.698,-0.692,-0.684,-13.846,0.5232,0.013818827736099772,0.488,0.522,0.55,10.464,-93.1,1.445683229480096,-95.0,-93.0,-90.0,-1862.0,-81.5,0.5,-82.0,-81.5,-81.0,-1630.0,-93.77777777777777,3.119037521692934,-98.0,,-90.0,-1688.0,,,,,,0.0
0.5347,0.0061408468471376215,0.518,0.536,0.544,10.693999999999999,-0.6942999999999999,0.00724637840579691,-0.708,-0.694,-0.68,-13.886,0.5329,0.008086408349817619,0.516,0.536,0.546,10.658000000000001,-90.75,1.299038105676658,-93.0,,-90.0,-726.0,-81.8,0.39999999999999997,-82.0,-82.0,-81.0,-1636.0,-90.0,0.0,-90.0,,-90.0,-360.0,,,,,,0.0
0.5327,0.01352442235365342,0.498,0.538,0.55,10.654,-0.6911,0.006526101439603867,-0.708,-0.69,-0.682,-13.822000000000001,0.5233000000000002,0.011300884921102428,0.492,0.525,0.54,10.466000000000005,-91.0,0.7745966692414834,-93.0,-91.0,-90.0,-1820.0,-81.6,0.4898979485566356,-82.0,-82.0,-81.0,-1632.0,-89.0,0.0,-89.0,,-89.0,-356.0,,,,,,0.0
0.5359999999999999,0.007924645102463585,0.514,0.536,0.546,10.719999999999999,-0.6931,0.006556675987114176,-0.704,-0.692,-0.68,-13.862,0.5209,0.012593252161375957,0.496,0.522,0.542,10.418000000000001,-92.4,5.834380858325929,-104.0,-89.5,-89.0,-1848.0,-81.6,0.7999999999999999,-83.0,-81.0,-81.0,-1632.0,,,,,,0.0,,,,,,0.0
0.5378,0.006779380502671324,0.526,0.542,0.546,10.755999999999998,-0.6931,0.011873921003611213,-0.72,-0.693,-0.666,-13.862000000000002,0.5223,0.026277556964071073,0.486,0.518,0.608,10.446,-89.4,0.4898979485566356,-90.0,-89.0,-89.0,-1788.0,-80.9,0.9433981132056604,-83.0,-81.0,-80.0,-1618.0,,,,,,0.0,,,,,,0.0
0.5355999999999999,0.008260750571225361,0.51,0.536,0.546,10.711999999999998,-0.6872,0.025380307326744483,-0.702,-0.692,-0.58,-13.744,0.5275,0.01912981965414206,0.496,0.527,0.598,10.549999999999999,-87.5,1.2041594578792296,-89.0,-87.5,-86.0,-1750.0,-83.2,0.39999999999999997,-84.0,-83.0,-83.0,-1664.0,-91.11111111111111,3.1071403231354586,-96.0,,-88.0,-1640.0,,,,,,0.0
0.5374000000000001,0.011315476127852518,0.51,0.541,0.552,10.748000000000001,-0.6848,0.007166589146867529,-0.692,-0.688,-0.666,-13.696,0.5300000000000001,0.01392838827718412,0.504,0.526,0.564,10.600000000000003,-86.5,0.5,-87.0,,-86.0,-346.0,-83.9,2.0712315177207983,-88.0,-83.0,-82.0,-1678.0,-93.42857142857143,3.063944369932459,-98.0,,-91.0,-1308.0,,,,,,0.0
0.5469000000000002,0.009989494481704275,0.524,0.55,0.56,10.938000000000004,-0.6888,0.0075471849056452526,-0.712,-0.69,-0.676,-13.776,0.5138,0.01578480281790053,0.478,0.512,0.54,10.276000000000002,-88.25,1.0897247358851685,-90.0,,-87.0,-706.0,-82.8,0.8717797887081347,-84.0,-82.5,-82.0,-1656.0,-102.0,0.0,-102.0,,-102.0,-204.0,,,,,,0.0
0.5371,0.010226925246622281,0.508,0.538,0.552,10.742,-0.6958999999999999,0.006617401302626273,-0.706,-0.697,-0.68,-13.917999999999997,0.5149000000000001,0.007224264668462811,0.502,0.517,0.53,10.298000000000002,-97.0,3.521363372331802,-101.0,-98.0,-90.0,-1940.0,-83.8,0.39999999999999997,-84.0,-84.0,-83.0,-1676.0,-91.33333333333333,4.85340659285368,-102.0,,-88.0,-1096.0,,,,,,0.0
0.5365,0.006383572667401858,0.526,0.536,0.55,10.73,-0.6952,0.007599999999999979,-0.712,-0.698,-0.68,-13.904,0.5180999999999999,0.008887631855561982,0.496,0.518,0.528,10.361999999999998,-95.3,3.716180835212409,-102.0,-93.5,-92.0,-1906.0,-84.0,0.0,-84.0,-84.0,-84.0,-1680.0,-90.66666666666667,1.0540925533894598,-92.0,,-89.0,-1632.0,,,,,,0.0
0.5479,0.03401455570781426,0.502,0.541,0.656,10.958000000000002,-0.6925999999999999,0.019006314740106757,-0.72,-0.698,-0.648,-13.851999999999999,0.5208999999999999,0.07737822691170947,0.332,0.517,0.652,10.418,-91.0,1.2649110640673518,-93.0,-91.0,-89.0,-1820.0,-81.7,1.6155494421403511,-84.0,-82.0,-79.0,-1634.0,-92.71428571428571,1.2777531299998799,-95.0,,-91.0,-1298.0,,,,,,0.0
0.6249,0.09176377280822753,0.46,0.624,0.882,12.498,-0.42140000000000005,0.049348150927871655,-0.544,-0.412,-0.33,-8.428,0.7061,0.0934547484079862,0.542,0.681,0.882,14.121999999999998,-95.8,3.1240998703626617,-101.0,-95.0,-93.0,-1916.0,-83.1,0.9433981132056604,-84.0,-83.5,-82.0,-1662.0,-96.16666666666667,1.2133516482134197,-98.0,,-95.0,-1154.0,,,,,,0.0
0.6049999999999999,0.016241921068642095,0.558,0.608,0.622,12.099999999999998,-0.46299999999999997,0.011216059914247957,-0.498,-0.464,-0.442,-9.26,0.6897,0.029754159373102763,0.596,0.69,0.736,13.793999999999999,-96.8,0.39999999999999997,-97.0,-97.0,-96.0,-1936.0,-85.0,0.6324555320336759,-86.0,-85.0,-84.0,-1700.0,-94.2,3.9698866482558417,-101.0,-92.0,-91.0,-1884.0,,,,,,0.0
0.6163999999999998,0.008685620300243392,0.598,0.62,0.628,12.327999999999998,-0.4523999999999999,0.0085463442476886,-0.472,-0.451,-0.434,-9.047999999999998,0.6967,0.0070505318948289215,0.68,0.696,0.712,13.934,-95.2,1.4696938456699067,-97.0,-96.0,-93.0,-1904.0,-84.2,0.39999999999999997,-85.0,-84.0,-84.0,-1684.0,-94.0,0.0,-94.0,,-94.0,-188.0,,,,,,0.0
0.6088999999999999,0.007279423054061365,0.59,0.608,0.624,12.177999999999997,-0.4523,0.007383088784512895,-0.464,-0.454,-0.436,-9.046,0.6996,0.01030727898138008,0.672,0.7,0.72,13.991999999999999,-97.6,1.2,-100.0,-97.0,-97.0,-1952.0,-85.0,2.0,-89.0,-84.0,-84.0,-1700.0,-97.44444444444444,2.3147407395555177,-100.0,,-95.0,-1754.0,,,,,,0.0
0.6146,0.021298826258740175,0.584,0.614,0.694,12.292,-0.45149999999999996,0.005962382074305542,-0.462,-0.45,-0.434,-9.03,0.6961999999999999,0.011061645447219848,0.664,0.698,0.716,13.924,-96.7,0.45825756949558394,-97.0,-97.0,-96.0,-1934.0,-84.3,0.45825756949558394,-85.0,-84.0,-84.0,-1686.0,-97.5,2.5,-100.0,,-95.0,-1560.0,,,,,,0.0
0.6115,0.009096702699330134,0.588,0.613,0.624,12.23,-0.4528,0.004995998398718724,-0.462,-0.452,-0.442,-9.056,0.7001,0.009828021163998365,0.68,0.7,0.72,14.001999999999999,-97.0,0.7745966692414834,-98.0,-97.0,-96.0,-1940.0,-84.1,0.30000000000000004,-85.0,-84.0,-84.0,-1682.0,-94.25,3.491060010942235,-100.0,,-91.0,-1508.0,,,,,,0.0
0.6143,0.008106170489201427,0.6,0.614,0.624,12.286,-0.4462,0.008096912991998871,-0.464,-0.448,-0.426,-8.924,0.7054,0.005517245689653494,0.694,0.704,0.718,14.108,-96.6,0.9165151389911679,-98.0,-97.0,-95.0,-1932.0,-84.9,0.30000000000000004,-85.0,-85.0,-84.0,-1698.0,-93.9,1.6401219466856725,-98.0,-94.0,-91.0,-1878.0,,,,,,0.0
0.6203,0.007301369734508731,0.608,0.62,0.636,12.405999999999999,-0.44719999999999993,0.008400000000000008,-0.462,-0.449,-0.432,-8.943999999999999,0.7034,0.008991106717195595,0.686,0.704,0.72,14.068000000000001,-96.3,1.1874342087037917,-97.0,-97.0,-94.0,-1926.0,-84.1,0.30000000000000004,-85.0,-84.0,-84.0,-1682.0,-94.0,1.4142135623730951,-98.0,-94.0,-93.0,-1880.0,,,,,,0.0
0.6136999999999999,0.007163099887618494,0.592,0.614,0.624,12.274,-0.45170000000000005,0.007107038764492571,-0.464,-0.452,-0.436,-9.034,0.7080999999999998,0.011179892664958816,0.68,0.705,0.728,14.161999999999997,-96.4,1.3564659966250536,-98.0,-96.5,-93.0,-1928.0,-85.3,1.004987562112089,-87.0,-85.5,-84.0,-1706.0,-94.0,0.6324555320336759,-95.0,-94.0,-93.0,-1880.0,,,,,,0.0
0.6123000000000001,0.008373171442171727,0.594,0.612,0.628,12.246,-0.45039999999999997,0.010346013725102052,-0.474,-0.45,-0.434,-9.008,0.7044,0.012467557900406942,0.678,0.704,0.728,14.088000000000001,-95.2,4.791659420284376,-104.0,-93.0,-90.0,-1904.0,-87.2,1.4696938456699067,-91.0,-87.0,-86.0,-1744.0,-91.125,3.059309562630104,-95.0,,-87.0,-1458.0,,,,,,0.0
0.6418,0.03141273627050022,0.594,0.649,0.7,12.836,-0.4485,0.015872932936291273,-0.474,-0.452,-0.414,-8.97,0.6749999999999999,0.03366600659418932,0.614,0.676,0.724,13.499999999999998,-93.5,3.442382895611701,-102.0,-92.0,-90.0,-1870.0,-95.5,6.284902544988268,-102.0,,-85.0,-1528.0,-86.3,4.360045871318328,-98.0,-85.0,-83.0,-1726.0,,,,,,0.0
0.6791,0.01167004712929641,0.654,0.684,0.696,13.582,-0.41430000000000006,0.02197521330954491,-0.45,-0.415,-0.37,-8.286000000000001,0.6678,0.016587947431795157,0.632,0.667,0.7,13.355999999999998,-90.4,5.9531504264548865,-102.0,-89.0,-86.0,-1808.0,-85.8,4.142463035441596,-94.0,-84.0,-83.0,-1716.0,-87.2,5.268775948927797,-98.0,-86.5,-82.0,-1744.0,,,,,,0.0
0.6664,0.01162067123706717,0.642,0.666,0.686,13.328,-0.409,0.012058192235986274,-0.434,-0.404,-0.392,-8.18,0.6748000000000001,0.010833282051160659,0.648,0.671,0.696,13.496,-90.0,4.147288270665544,-102.0,-89.0,-86.0,-1800.0,-83.6,0.4898979485566356,-84.0,-84.0,-83.0,-1672.0,-84.9,4.570557952810575,-94.0,-83.0,-82.0,-1698.0,,,,,,0.0
0.6519999999999999,0.008124038404635967,0.636,0.654,0.664,13.04,-0.4311,0.010816191566350893,-0.452,-0.433,-0.408,-8.622,0.6758,0.013518875692896922,0.648,0.674,0.696,13.516,-91.2,7.19444229944198,-100.0,,-85.0,-912.0,-82.0,1.4832396974191326,-84.0,-82.0,-80.0,-1640.0,-84.4,0.6633249580710799,-85.0,-84.5,-83.0,-1688.0,,,,,,0.0
0.6471,0.00893252483903628,0.624,0.648,0.664,12.942,-0.4375,0.00799687438940991,-0.45,-0.435,-0.424,-8.75,0.6812,0.0108517279730004,0.662,0.68,0.71,13.624,-86.0,0.0,-86.0,,-86.0,-688.0,-82.3,0.6403124237432849,-83.0,-82.0,-81.0,-1646.0,-85.7,1.345362404707371,-88.0,-85.5,-84.0,-1714.0,,,,,,0.0
0.6458999999999999,0.006081940479813993,0.636,0.646,0.656,12.918,-0.43079999999999996,0.007782030583337495,-0.442,-0.434,-0.416,-8.616,0.6880999999999999,0.008011866199581684,0.67,0.688,0.702,13.761999999999999,,,,,,0.0,-83.2,4.06939798987516,-90.0,-81.0,-80.0,-1664.0,-87.6,1.0198039027185568,-89.0,-88.0,-86.0,-1752.0,,,,,,0.0
0.6473000000000001,0.0070505318948289345,0.63,0.647,0.662,12.946000000000002,-0.4345,0.005687706040223954,-0.446,-0.434,-0.424,-8.69,0.6837000000000001,0.008301204731844616,0.664,0.685,0.696,13.674000000000001,,,,,,0.0,-81.4,2.90516780926679,-90.0,-80.5,-80.0,-1628.0,-88.2,1.4696938456699067,-90.0,-89.0,-86.0,-1764.0,,,,,,0.0
0.6453684210526316,0.006490564214512847,0.636,0.646,0.66,12.262,-0.4332631578947368,0.006463192182319479,-0.45,-0.434,-0.422,-8.232,0.6877894736842105,0.010216493101937587,0.67,0.688,0.704,13.068,,,,,,0.0,-80.0,0.0,-80.0,-80.0,-80.0,-1520.0,-87.78947368421052,0.8931875130777442,-90.0,-88.0,-87.0,-1668.0,,,,,,0.0
0.6397999999999999,0.01046709128650363,0.614,0.642,0.654,12.796,-0.442,0.007745966692414841,-0.456,-0.443,-0.424,-8.84,0.6817,0.010588200980336525,0.656,0.683,0.7,13.634,-99.4,5.2,-102.0,,-89.0,-497.0,-80.45,0.4974937185533099,-81.0,-80.0,-80.0,-1609.0,-89.35,1.2757350822173072,-91.0,-90.0,-87.0,-1787.0,,,,,,0.0
0.6416999999999999,0.007328710664230107,0.624,0.643,0.654,12.834,-0.4372,0.009152048950918047,-0.452,-0.44,-0.416,-8.744,0.6881,0.009989494481704239,0.664,0.688,0.71,13.762,-89.0,0.0,-89.0,,-89.0,-267.0,-80.2,0.39999999999999997,-81.0,-80.0,-80.0,-1604.0,-88.3,0.9539392014169458,-90.0,-88.0,-87.0,-1766.0,,,,,,0.0
0.6399000000000001,0.007415524256584972,0.624,0.639,0.652,12.798000000000002,-0.43709999999999993,0.006081940479813993,-0.45,-0.435,-0.426,-8.741999999999999,0.6851999999999999,0.011214276615100919,0.662,0.687,0.716,13.703999999999999,,,,,,0.0,-80.8,0.4,-81.0,-81.0,-80.0,-1616.0,-88.65,1.061838029079765,-90.0,-89.0,-87.0,-1773.0,,,,,,0.0
0.6263,0.006993568473962351,0.61,0.624,0.638,12.526,-0.43970000000000004,0.005631163290120439,-0.45,-0.442,-0.426,-8.794,0.6952999999999999,0.008155366331440893,0.678,0.696,0.71,13.905999999999999,,,,,,0.0,-80.55,0.4974937185533099,-81.0,-81.0,-80.0,-1611.0,-91.85,4.150602365922325,-100.0,-90.0,-89.0,-1837.0,,,,,,0.0
0.6265000000000001,0.009754486147409314,0.6,0.627,0.642,12.530000000000001,-0.43859999999999993,0.005589275444992854,-0.45,-0.437,-0.432,-8.771999999999998,0.694,0.008625543461139107,0.678,0.696,0.71,13.879999999999999,,,,,,0.0,-80.2,0.39999999999999997,-81.0,-80.0,-80.0,-1604.0,-90.1,0.43588989435406733,-91.0,-90.0,-89.0,-1802.0,,,,,,0.0
0.6335999999999999,0.009436100889668368,0.61,0.636,0.654,12.671999999999999,-0.434,0.008602325267042634,-0.448,-0.433,-0.416,-8.68,0.6935999999999999,0.01092886087385138,0.67,0.694,0.708,13.871999999999998,,,,,,0.0,-79.75,0.4330127018922193,-80.0,-80.0,-79.0,-1595.0,-89.45,1.023474474522936,-91.0,-89.0,-88.0,-1789.0,,,,,,0.0
0.6326,0.008052328855678966,0.62,0.632,0.652,12.652000000000001,-0.4290999999999999,0.005233545643251815,-0.436,-0.43,-0.418,-8.581999999999999,0.6961999999999999,0.010618851161966605,0.68,0.695,0.716,13.924,-99.55555555555556,3.5624932315291997,-103.0,,-92.0,-896.0,-79.15,0.6538348415311009,-82.0,-79.0,-79.0,-1583.0,-90.05,1.116915395184434,-91.0,-90.0,-88.0,-1801.0,,,,,,0.0
0.5623,0.06024707461777709,0.446,0.565,0.638,11.246,-0.5023000000000001,0.055264002750434214,-0.586,-0.498,-0.424,-10.046000000000001,0.7139,0.034032190643565684,0.638,0.718,0.77,14.277999999999999,-92.9,1.3379088160259651,-95.0,-93.0,-91.0,-1858.0,-80.85,1.9306734576307822,-87.0,-81.0,-79.0,-1617.0,-86.7,3.3926390907374753,-91.0,-88.0,-81.0,-1734.0,,,,,,0.0
0.45779999999999993,0.022475764725588314,0.414,0.462,0.492,9.155999999999999,-0.5206,0.01745966780898193,-0.576,-0.52,-0.49,-10.411999999999999,0.7666,0.03703565849286334,0.672,0.777,0.816,15.331999999999999,-94.05,2.654712790491657,-99.0,-94.0,-91.0,-1881.0,-80.9,2.9983328701129897,-87.0,-81.0,-77.0,-1618.0,-91.35,4.065402809070708,-99.0,-89.0,-88.0,-1827.0,,,,,,0.0
0.46060000000000006,0.018374982993189404,0.422,0.463,0.496,9.212000000000002,-0.47729999999999995,0.02361588448481233,-0.522,-0.465,-0.45,-9.546,0.8027999999999998,0.012528367810692631,0.772,0.804,0.824,16.055999999999997,-92.0,1.2649110640673518,-93.0,-93.0,-90.0,-1840.0,-75.3,0.9539392014169458,-77.0,-75.0,-74.0,-1506.0,-85.4,1.5620499351813308,-88.0,-85.0,-84.0,-1708.0,,,,,,0.0
0.485375,0.009319837713179345,0.462,0.487,0.498,7.766,-0.47,0.011067971810589312,-0.482,-0.476,-0.442,-7.52,0.79775,0.024154450935593624,0.76,0.795,0.872,12.764,-92.375,4.456385867493972,-100.0,-90.0,-89.0,-1478.0,-76.0,0.8660254037844386,-79.0,-76.0,-75.0,-1216.0,-84.0,0.0,-84.0,-84.0,-84.0,-1344.0,,,,,,0.0
0.4861,0.010516178012947481,0.46,0.486,0.504,9.722,-0.46440000000000003,0.01167218916913189,-0.488,-0.464,-0.442,-9.288,0.7965000000000002,0.01737670854908948,0.76,0.8,0.816,15.930000000000003,-88.4,0.7999999999999999,-89.0,-89.0,-87.0,-1768.0,-80.3125,1.529654781315052,-84.0,,-79.0,-1285.0,-83.2,1.2489995996796797,-88.0,-83.0,-82.0,-1664.0,,,,,,0.0
0.6305,0.26375054502313355,0.454,0.538,1.47,12.61,-0.24819999999999992,0.24983266399732443,-0.466,-0.41100000000000003,0.224,-4.963999999999999,0.6374000000000002,0.2200682621370015,0.098,0.71,0.83,12.748000000000003,-90.26315789473684,3.566541967599456,-96.0,,-86.0,-1715.0,-84.95,6.674391358019097,-94.0,-84.0,-75.0,-1699.0,-88.15,2.2863726730347356,-91.0,-88.0,-84.0,-1763.0,,,,,,0.0
0.9672999999999998,0.17244973180611214,0.814,0.893,1.566,19.345999999999997,-0.36169999999999997,0.30465276955905063,-1.118,-0.321,0.184,-7.233999999999999,0.30779999999999996,0.25512734075359317,-0.196,0.291,1.112,6.156,-94.17647058823529,4.061806235678134,-97.0,,-81.0,-1601.0,-77.2,1.6613247725836147,-80.0,-77.0,-75.0,-1544.0,-86.6,3.0066592756745814,-91.0,-88.0,-83.0,-1732.0,,,,,,0.0
0.9121,0.03990225557534312,0.85,0.904,1.038,18.242,-0.4126,0.03924843945942309,-0.528,-0.401,-0.37,-8.252,0.1864,0.055228977901098264,0.128,0.16899999999999998,0.316,3.728,-83.1,2.0952326839756963,-86.0,-84.0,-79.0,-1662.0,-81.6,2.764054992217051,-91.0,-81.0,-79.0,-1632.0,-82.35,1.3518505834595773,-84.0,-83.0,-80.0,-1647.0,,,,,,0.0
0.9157,0.11313403555075723,0.722,0.903,1.216,18.314,-0.2374,0.1831525047603772,-0.75,-0.196,0.032,-4.748,0.27470000000000006,0.07482853733703473,0.126,0.252,0.454,5.4940000000000015,-82.95,3.0079062485390065,-86.0,-85.0,-79.0,-1659.0,-87.9,2.9647934160747185,-92.0,-87.0,-81.0,-1758.0,-78.95,1.6575584454250776,-82.0,-79.0,-77.0,-1579.0,,,,,,0.0
1.0289000000000004,0.19641535072391872,0.722,1.1030000000000002,1.484,20.578000000000007,-0.31520000000000004,0.13213084424160773,-0.576,-0.295,-0.046,-6.304,0.1779,0.15404606453915012,0.064,0.126,0.718,3.558,-85.25,3.418698582794336,-95.0,-86.0,-81.0,-1705.0,-83.2,4.422668877499196,-91.0,-81.0,-78.0,-1664.0,-82.0,3.847076812334269,-87.0,-84.0,-77.0,-1640.0,,,,,,0.0
0.46180000000000004,0.1456844535288512,0.226,0.46699999999999997,0.772,9.236,-0.7389999999999999,0.14519986225888784,-1.096,-0.721,-0.346,-14.779999999999998,0.49820000000000003,0.2248394093569897,-0.004,0.555,0.88,9.964,-97.9090909090909,4.6211872825959395,-104.0,,-94.0,-1077.0,-82.65,1.7109938632268673,-85.0,-83.0,-78.0,-1653.0,-83.55,3.5982634700644143,-88.0,-84.0,-77.0,-1671.0,,,,,,0.0
0.7136,0.15887177219380413,0.448,0.692,1.02,14.272,-0.013900000000000006,0.5896173250507485,-0.746,-0.405,1.008,-0.27800000000000014,0.43310000000000015,0.2542294042788914,-0.1,0.499,0.88,8.662000000000003,-95.0,4.1137667560372115,-100.0,,-90.0,-1235.0,-83.95,6.815240274561125,-94.0,-79.0,-77.0,-1679.0,-83.65,6.255197838597913,-94.0,-84.0,-76.0,-1673.0,,,,,,0.0
1.0045000000000002,0.12756939288089444,0.774,0.991,1.248,20.090000000000003,-0.26019999999999993,0.32540491698805046,-0.826,-0.279,0.482,-5.203999999999999,0.19509999999999997,0.26964233718019875,-0.306,0.311,0.518,3.9019999999999992,-83.4,9.446692542895635,-98.0,-82.0,-71.0,-1668.0,-86.1,4.311612227462019,-92.0,-88.0,-79.0,-1722.0,-72.95,3.106042498099471,-77.0,-74.0,-68.0,-1459.0,,,,,,0.0
0.9411000000000002,0.09543683775146787,0.742,0.933,1.086,18.822000000000003,-0.08510000000000001,0.14306568421532817,-0.316,-0.091,0.246,-1.7020000000000002,0.38899999999999996,0.14874205861154402,-0.036,0.447,0.504,7.779999999999999,-78.9,4.426059195266145,-89.0,-78.0,-71.0,-1578.0,-85.0625,3.9760022321422306,-89.0,,-79.0,-1361.0,-74.4,0.9165151389911679,-76.0,-74.0,-72.0,-1488.0,,,,,,0.0
0.9330999999999999,0.04924418747425933,0.848,0.92,1.036,18.662,-0.017499999999999995,0.08528980009356336,-0.122,-0.046,0.182,-0.34999999999999987,0.393,0.057311429924579625,0.3,0.395,0.472,7.86,-87.2,1.4,-89.0,-87.0,-85.0,-1744.0,-88.625,0.4841229182759271,-89.0,,-88.0,-709.0,-74.65,2.535251466817444,-79.0,-73.0,-72.0,-1493.0,,,,,,0.0
0.9433000000000001,0.17189447344228376,0.776,0.903,1.414,18.866000000000003,-0.20529999999999998,0.14192149238223223,-0.4,-0.214,0.056,-4.106,0.33069999999999994,0.1765403919787197,-0.248,0.327,0.56,6.613999999999999,-76.2,5.81033561853358,-85.0,-79.0,-67.0,-1524.0,-86.55,3.1380726569026414,-90.0,-89.0,-83.0,-1731.0,-71.35,1.6515144564913744,-76.0,-71.0,-69.0,-1427.0,,,,,,0.0
0.8943999999999999,0.2908962701720323,0.028,0.993,1.224,17.887999999999998,-0.49879999999999997,0.30952957855429586,-1.616,-0.461,-0.064,-9.975999999999999,0.36290000000000006,0.6309993581613218,-0.354,0.175,1.928,7.258000000000001,-78.2,3.7894590642992836,-85.0,-77.0,-74.0,-1564.0,-85.85,1.8513508581573617,-89.0,-85.0,-84.0,-1717.0,-76.1,2.6057628441590763,-81.0,-76.0,-74.0,-1522.0,,,,,,0.0
-0.3967,0.14681454287637857,-0.668,-0.40900000000000003,-0.136,-7.934,0.5349,0.8157201664786766,-1.242,0.367,2.2,10.698,0.36669999999999997,0.8024079448759216,-1.368,0.40800000000000003,1.638,7.334,-83.6,2.5768197453450252,-88.0,-82.0,-81.0,-1672.0,-93.8,5.491812087098393,-100.0,-95.0,-86.0,-1876.0,-73.0,1.0,-74.0,-73.0,-70.0,-1460.0,,,,,,0.0
-0.5320999999999999,0.17470372062437595,-0.832,-0.557,-0.008,-10.641999999999998,0.3379,0.9846368823073814,-1.192,0.346,2.374,6.757999999999999,0.5687000000000001,0.8313551046333931,-1.278,0.764,1.98,11.374000000000002,-82.25,1.1989578808281798,-85.0,,-81.0,-1316.0,-92.0625,6.3587415225027035,-103.0,,-86.0,-1473.0,-72.2,1.6613247725836147,-74.0,-73.0,-70.0,-1444.0,,,,,,0.0
-0.052900000000000016,0.424147368257779,-0.688,0.033,0.55,-1.0580000000000003,-0.2563,0.6017292663648661,-1.406,-0.358,0.748,-5.1259999999999994,0.7102000000000002,0.5902436446078857,-0.84,0.804,1.48,14.204000000000002,-82.0,2.7202941017470885,-85.0,-83.0,-78.0,-1640.0,-89.5,6.924593850905626,-100.0,-87.0,-79.0,-1790.0,-75.35,4.519679192155125,-81.0,-74.0,-70.0,-1507.0,,,,,,0.0
0.9218999999999999,0.15559881104944215,0.432,0.912,1.19,18.438,-0.4342,0.10671063677066124,-0.698,-0.44,-0.158,-8.684,0.26749999999999996,0.12883924091673313,0.018,0.29,0.454,5.349999999999999,-78.7,5.701754116059373,-91.0,-78.0,-72.0,-1574.0,-91.0625,5.973574620777747,-100.0,,-83.0,-1457.0,-84.15,7.065939427988328,-96.0,-81.0,-75.0,-1683.0,,,,,,0.0
0.9397000000000002,0.14256826435080147,0.798,0.894,1.336,18.794000000000004,-0.33019999999999994,0.06687570560375418,-0.474,-0.32,-0.202,-6.603999999999999,0.2198,0.07327455219924581,0.098,0.22,0.326,4.396,-82.0,5.727128425310541,-91.0,-81.0,-74.0,-1640.0,-86.85,3.1980462785894765,-93.0,-86.0,-82.0,-1737.0,-80.2,3.7094473981982814,-84.0,-81.0,-74.0,-1604.0,,,,,,0.0
0.943,0.10923094799552002,0.796,0.966,1.198,18.86,-0.24690000000000004,0.07653358739795228,-0.386,-0.257,-0.094,-4.938000000000001,0.2642,0.108611049161676,0.088,0.292,0.462,5.284,-93.18181818181819,2.8862741575250084,-97.0,,-91.0,-1025.0,-76.65,6.018928476066152,-85.0,-77.0,-70.0,-1533.0,-84.5625,4.743004717476043,-90.0,,-76.0,-1353.0,,,,,,0.0
0.9123000000000003,0.056197063980247215,0.8,0.911,1.008,18.246000000000006,-0.172,0.057131427428342804,-0.288,-0.157,-0.114,-3.44,0.37750000000000006,0.0980303524424961,0.156,0.385,0.56,7.550000000000001,-80.05882352941177,3.114871128205583,-85.0,,-77.0,-1361.0,-72.7,3.3331666624997918,-79.0,-72.0,-69.0,-1454.0,-87.65,6.247199372518857,-96.0,-89.0,-80.0,-1753.0,,,,,,0.0
0.9062000000000001,0.06365814951755981,0.754,0.903,0.994,18.124000000000002,-0.1271,0.04657671091865548,-0.218,-0.124,-0.026,-2.542,0.44989999999999997,0.04157150466365152,0.384,0.454,0.51,8.998,-82.8,1.4696938456699067,-85.0,-82.0,-81.0,-1656.0,-69.85,1.4585952145814822,-72.0,-69.0,-68.0,-1397.0,-94.5,3.943348830626071,-98.0,-96.0,-87.0,-1890.0,,,,,,0.0
0.8675,0.08203871037504187,0.704,0.865,1.064,17.35,-0.2549,0.12311860135657811,-0.59,-0.214,-0.13,-5.098,0.4119,0.07697135830943873,0.268,0.427,0.55,8.238,-90.47368421052632,7.191869832647883,-104.0,,-85.0,-1719.0,-69.5,3.024896692450835,-74.0,-70.0,-65.0,-1390.0,-93.86666666666666,6.386096007908293,-101.0,,-84.0,-1408.0,,,,,,0.0
0.9340999999999999,0.10373519171428759,0.736,0.944,1.142,18.682,-0.10419999999999999,0.3331563596871595,-0.618,0.012,0.438,-2.0839999999999996,0.22810000000000002,0.14698363854524762,0.062,0.165,0.552,4.562,,,,,,0.0,-67.5,1.5329709716755893,-70.0,-68.0,-66.0,-1350.0,,,,,,0.0,,,,,,0.0
0.9623000000000002,0.09716434531246532,0.764,0.972,1.13,19.246000000000002,-0.0979,0.33366418746997706,-0.97,-0.011,0.38,-1.958,-0.0016999999999999973,0.2155238037897438,-0.434,-0.054,0.464,-0.03399999999999995,,,,,,0.0,-66.9,2.487971060924946,-70.0,-66.0,-60.0,-1338.0,,,,,,0.0,,,,,,0.0
0.9187,0.05585794482434885,0.814,0.912,1.022,18.374,-0.4035,0.04965027693779764,-0.488,-0.416,-0.338,-8.07,0.07380000000000002,0.02903032896816707,0.024,0.065,0.126,1.4760000000000004,,,,,,0.0,-63.3,3.620773398046335,-67.0,-63.0,-58.0,-1266.0,,,,,,0.0,,,,,,0.0
0.9353,0.045726469358567355,0.878,0.916,1.04,18.706,-0.21639999999999993,0.19868930519783898,-0.398,-0.315,0.306,-4.3279999999999985,0.25830000000000003,0.09579201428094099,0.134,0.269,0.446,5.166,-101.4,0.8,-103.0,,-101.0,-507.0,-66.65,1.7399712641305314,-70.0,-66.0,-65.0,-1333.0,-94.0,0.0,-94.0,,-94.0,-94.0,,,,,,0.0
0.9195,0.04294123892018021,0.83,0.922,0.988,18.39,-0.09040000000000002,0.028345017198795276,-0.142,-0.093,-0.032,-1.8080000000000005,0.33429999999999993,0.037922420808803856,0.274,0.333,0.406,6.685999999999999,-103.0,0.0,-103.0,,-103.0,-309.0,-67.95,0.7399324293474371,-69.0,-68.0,-66.0,-1359.0,-98.125,3.887077951366553,-102.0,,-94.0,-785.0,,,,,,0.0
0.9235000000000001,0.05904870870730368,0.838,0.923,1.026,18.470000000000002,-0.2883,0.06933188299765124,-0.398,-0.29600000000000004,-0.166,-5.766,0.24340000000000006,0.10922106024023022,0.086,0.247,0.408,4.868000000000001,,,,,,0.0,-67.3,2.3895606290697047,-69.0,-69.0,-63.0,-1346.0,-95.57142857142857,0.4948716593053935,-96.0,,-95.0,-669.0,,,,,,0.0
0.9525,0.16749074601302608,0.736,0.921,1.32,19.05,-0.26380000000000003,0.1803340234121116,-0.468,-0.309,0.174,-5.276000000000001,0.2129,0.11463590188069356,0.03,0.209,0.39,4.258,,,,,,0.0,-74.25,3.713152299596665,-79.0,-76.0,-68.0,-1485.0,-97.0,0.0,-97.0,,-97.0,-388.0,,,,,,0.0
0.9912999999999998,0.19061088636276788,0.67,0.984,1.312,19.825999999999997,-0.3025,0.14432584661106274,-0.602,-0.333,-0.058,-6.05,0.21869999999999998,0.15750463485243854,-0.016,0.238,0.524,4.374,,,,,,0.0,-72.0,1.9493588689617927,-77.0,-73.0,-69.0,-1440.0,,,,,,0.0,,,,,,0.0
0.8770999999999999,0.2873857860089813,0.406,0.844,1.464,17.541999999999998,-0.5042,0.1593021029365275,-0.912,-0.487,-0.238,-10.084,0.24860000000000002,0.21118058622894292,-0.032,0.187,0.678,4.972,,,,,,0.0,-70.5,3.598610843089316,-77.0,-70.0,-65.0,-1410.0,,,,,,0.0,,,,,,0.0
0.4163,0.6348896833308917,-0.272,0.161,1.9,8.326,-0.6658,0.47155101526770143,-1.394,-0.585,0.112,-13.315999999999999,0.6808,0.39501564525977956,0.158,0.655,1.472,13.616,,,,,,0.0,-71.85,3.15079355083763,-76.0,-71.0,-68.0,-1437.0,,,,,,0.0,,,,,,0.0
0.40199999999999997,0.588329839460825,-0.398,0.237,1.902,8.04,-0.6580999999999999,0.6537025240887478,-2.344,-0.581,0.248,-13.161999999999999,0.5165,0.3586590999821418,-0.05,0.447,1.44,10.329999999999998,,,,,,0.0,-70.65,2.612948526090784,-76.0,-70.0,-68.0,-1413.0,,,,,,0.0,,,,,,0.0
0.9589000000000001,0.1568406516181312,0.774,0.924,1.398,19.178,-0.47700000000000004,0.28731898649410553,-1.21,-0.355,-0.162,-9.540000000000001,0.28540000000000004,0.1511609737994566,0.102,0.279,0.806,5.708000000000001,,,,,,0.0,-73.95,5.809259849584971,-85.0,-72.0,-68.0,-1479.0,,,,,,0.0,,,,,,0.0
0.9426,0.0445874421782636,0.866,0.94,1.062,18.852,-0.32460000000000006,0.13512527520786036,-0.528,-0.348,-0.004,-6.492000000000001,0.22940000000000005,0.11118471117919045,0.12,0.202,0.59,4.588000000000001,,,,,,0.0,-67.65,1.4585952145814822,-70.0,-68.0,-65.0,-1353.0,,,,,,0.0,,,,,,0.0
0.922,0.13688827561190184,0.632,0.912,1.27,18.44,-0.4197,0.17603780843898278,-0.84,-0.361,-0.116,-8.394,0.188,0.15034759725383043,-0.114,0.197,0.552,3.7600000000000002,,,,,,0.0,-66.65,1.3143439428094914,-68.0,-67.0,-65.0,-1333.0,-102.0,0.0,-102.0,,-102.0,-102.0,,,,,,0.0
1.0264,0.13837572041366217,0.782,1.0150000000000001,1.41,20.528,-0.23150000000000004,0.21890169026300368,-0.504,-0.289,0.206,-4.630000000000001,0.1626,0.20338938025373896,-0.208,0.138,0.472,3.252,,,,,,0.0,-64.85,2.5937424698685874,-69.0,-65.0,-59.0,-1297.0,-102.0,0.0,-102.0,,-102.0,-306.0,,,,,,0.0
0.6889000000000001,0.2379987184839448,0.238,0.725,1.008,13.778000000000002,-0.5285,0.11413654103747843,-0.792,-0.547,-0.32,-10.57,0.4736999999999999,0.31543574623051207,-0.02,0.618,0.854,9.473999999999998,-97.8,3.6,-105.0,,-96.0,-489.0,-68.4,4.12795348811006,-75.0,-70.0,-59.0,-1368.0,-93.11111111111111,4.3829073162924495,-98.0,,-89.0,-838.0,,,,,,0.0
-0.05560000000000002,0.3008192812969275,-0.458,-0.07400000000000001,0.48,-1.1120000000000003,-0.8538,0.18271715847177575,-1.112,-0.863,-0.45,-17.076,0.12140000000000002,0.33261575428713536,-0.548,0.149,0.686,2.4280000000000004,-104.0,1.7320508075688772,-105.0,,-101.0,-416.0,-77.7,1.6462077633154326,-80.0,-77.0,-75.0,-1554.0,-89.25,3.722118572354549,-101.0,,-87.0,-1071.0,,,,,,0.0
0.6704000000000001,0.3714908343418448,-0.04,0.632,1.23,13.408000000000001,-0.6321,0.529060100555693,-1.47,-0.552,0.352,-12.642,0.16160000000000002,0.3822646203875007,-0.52,0.273,0.64,3.232,-101.0,0.0,-101.0,,-101.0,-303.0,-77.35,2.080264406271472,-84.0,-77.0,-75.0,-1547.0,-93.8,5.430776494511013,-101.0,,-87.0,-1407.0,,,,,,0.0
1.1045263157894736,0.3199854221056184,0.466,1.158,1.624,20.985999999999997,-0.3046315789473684,0.2105902008332311,-0.648,-0.306,0.034,-5.788,0.19357894736842104,0.15862246332905114,-0.06,0.15,0.572,3.678,,,,,,0.0,-71.78947368421052,5.690055474416665,-84.0,-71.0,-66.0,-1364.0,,,,,,0.0,,,,,,0.0
0.8811000000000002,0.3250018307640743,0.142,0.97,1.388,17.622000000000003,-0.3864000000000001,0.11276275981014301,-0.562,-0.392,-0.208,-7.7280000000000015,0.3936,0.08570554241121166,0.21,0.416,0.542,7.872,-104.0,0.0,-104.0,,-104.0,-416.0,-74.0,1.2649110640673518,-75.0,-75.0,-72.0,-1480.0,-100.0,0.0,-100.0,,-100.0,-400.0,,,,,,0.0
0.0037000000000000006,0.23913951994599303,-0.272,-0.057999999999999996,0.384,0.07400000000000001,-0.48719999999999997,0.2945147874046395,-1.024,-0.42200000000000004,-0.032,-9.744,0.8355,0.19310605894171212,0.568,0.855,1.148,16.71,,,,,,0.0,-69.8,2.4819347291981715,-73.0,-70.0,-67.0,-1396.0,,,,,,0.0,,,,,,0.0
-0.453,0.17862530615789018,-0.774,-0.473,-0.154,-9.06,0.1741,0.3294525610767049,-0.428,0.188,0.706,3.482,0.9216,0.08313747650728882,0.792,0.921,1.048,18.432,,,,,,0.0,-69.0,2.0976176963403033,-71.0,-70.0,-66.0,-1380.0,-100.0,0.0,-100.0,,-100.0,-400.0,,,,,,0.0
-0.31400000000000006,0.08678940027445747,-0.496,-0.311,-0.138,-6.280000000000001,-0.47970000000000007,0.1531551827395991,-0.73,-0.474,-0.21,-9.594000000000001,0.8872,0.07431392870788087,0.736,0.897,0.992,17.744,-101.0,0.0,-101.0,,-101.0,-808.0,-68.2,2.9933259094191524,-74.0,-67.0,-66.0,-1364.0,-99.0,0.0,-99.0,,-99.0,-396.0,,,,,,0.0
-0.4429,0.02192236301131792,-0.478,-0.442,-0.4,-8.858,-0.1917,0.12780340371054283,-0.386,-0.226,0.126,-3.834,0.8978999999999999,0.059432230313189484,0.752,0.901,0.998,17.958,-101.0,1.0,-102.0,,-100.0,-808.0,-73.0,0.8944271909999159,-74.0,-73.0,-72.0,-1460.0,,,,,,0.0,,,,,,0.0
-0.47859999999999997,0.018122913673027298,-0.522,-0.474,-0.45,-9.572,-0.22000000000000003,0.024281680337241908,-0.276,-0.217,-0.176,-4.4,0.9005000000000001,0.020296551431216097,0.854,0.903,0.944,18.01,-101.5,2.5,-104.0,,-99.0,-1624.0,-70.0,1.4142135623730951,-72.0,-70.0,-68.0,-1400.0,,,,,,0.0,,,,,,0.0
-0.4943999999999999,0.10653375052066832,-0.69,-0.49,-0.238,-9.887999999999998,-0.1572,0.3773986751434085,-1.104,-0.218,0.338,-3.144,0.8508000000000001,0.08645322434704214,0.674,0.881,1.054,17.016000000000002,-97.66666666666667,3.2998316455372216,-100.0,,-93.0,-1172.0,-70.4,3.8262252939417984,-78.0,-69.0,-68.0,-1408.0,,,,,,0.0,,,,,,0.0
-0.22750000000000004,0.24136600837731895,-0.506,-0.273,0.544,-4.550000000000001,-0.004400000000000004,0.22784872174317766,-0.528,0.036,0.434,-0.08800000000000008,0.8070999999999999,0.2034025319409766,0.408,0.886,1.094,16.142,,,,,,0.0,-75.0,5.865151319446072,-86.0,-72.0,-70.0,-1500.0,-98.5,0.5,-99.0,,-98.0,-788.0,,,,,,0.0
1.1709,0.38788631066331797,0.838,0.991,2.318,23.418000000000003,-0.26680000000000004,0.5377926738065515,-1.378,-0.298,0.984,-5.336,0.23969999999999997,0.35680542316506353,-0.76,0.201,0.888,4.794,,,,,,0.0,-76.2,2.7856776554368237,-79.0,-77.0,-72.0,-1524.0,,,,,,0.0,,,,,,0.0
0.9105000000000001,0.05954787989508946,0.792,0.9,1.048,18.21,-0.25320000000000004,0.22014667837603183,-0.45,-0.349,0.376,-5.064000000000001,0.28800000000000003,0.09586866015544393,0.172,0.26,0.454,5.760000000000001,-101.0,0.0,-101.0,,-101.0,-404.0,-78.2,9.019977827023745,-95.0,-73.0,-70.0,-1564.0,-100.0,2.0,-102.0,,-98.0,-800.0,,,,,,0.0
0.93275,0.07208631978399233,0.83,0.929,1.08,14.924,-0.230125,0.0918489759061036,-0.366,-0.241,-0.058,-3.682,0.35587500000000005,0.17212127810064623,0.118,0.384,0.772,5.694000000000001,,,,,,0.0,-73.0,0.7071067811865476,-74.0,-73.0,-72.0,-1168.0,-96.0,2.9154759474226504,-100.0,-96.0,-92.0,-1536.0,,,,,,0.0
0.8862,0.10557063985786956,0.726,0.877,1.166,17.724,-0.09709999999999999,0.10842043165381698,-0.24,-0.12,0.078,-1.9419999999999997,0.4474,0.08409780020904234,0.316,0.46699999999999997,0.55,8.948,,,,,,0.0,-74.4,4.223742416388576,-79.0,-74.0,-68.0,-1488.0,-96.0,0.0,-96.0,,-96.0,-384.0,,,,,,0.0
0.9593999999999999,0.06045196440149818,0.814,0.959,1.094,19.188,-0.30490000000000006,0.10704480370386972,-0.554,-0.271,-0.16,-6.098000000000001,0.21220000000000003,0.08863385357751292,0.024,0.22,0.35,4.244000000000001,-101.0,0.0,-101.0,,-101.0,-404.0,-74.4,2.244994432064365,-78.0,-74.0,-71.0,-1488.0,,,,,,0.0,,,,,,0.0
0.9064,0.0861593871844502,0.76,0.917,1.054,18.128,-0.3714,0.03846088922528963,-0.432,-0.384,-0.296,-7.428,0.18860000000000005,0.0496471550040886,0.094,0.206,0.248,3.7720000000000007,,,,,,0.0,-77.4,3.97994974842648,-84.0,-76.0,-72.0,-1548.0,,,,,,0.0,,,,,,0.0
0.9579999999999999,0.13352602742536757,0.69,0.988,1.144,19.159999999999997,-0.32399999999999995,0.12588248488173404,-0.552,-0.345,0.04,-6.4799999999999995,0.19219999999999998,0.08126475250685257,0.088,0.183,0.356,3.844,,,,,,0.0,-73.8,3.6551333764994123,-80.0,-73.0,-69.0,-1476.0,,,,,,0.0,,,,,,0.0
0.9970000000000001,0.16896330962667605,0.752,0.9339999999999999,1.31,19.94,-0.3914,0.1147485947626375,-0.57,-0.432,-0.19,-7.828,0.087,0.07502133030012198,-0.028,0.062,0.306,1.74,,,,,,0.0,-68.2,2.4819347291981715,-73.0,-67.0,-66.0,-1364.0,,,,,,0.0,,,,,,0.0
1.0167,0.18237902839964906,0.818,0.971,1.408,20.334,-0.26130000000000003,0.16203613794459557,-0.466,-0.32,0.126,-5.226000000000001,0.35180000000000006,0.10794053918709134,0.11,0.363,0.53,7.036000000000001,-97.0,0.0,-97.0,,-97.0,-388.0,-66.2,1.5999999999999999,-69.0,-66.0,-64.0,-1324.0,,,,,,0.0,,,,,,0.0
1.0119,0.2785350785807777,0.71,0.927,1.724,20.238,-0.4429,0.22638769842904452,-0.772,-0.517,-0.11,-8.858,0.0701,0.23646181509918254,-0.42,0.157,0.472,1.402,,,,,,0.0,-68.4,4.673328578219169,-75.0,-68.0,-62.0,-1368.0,,,,,,0.0,,,,,,0.0
0.9390000000000001,0.08093330587588773,0.812,0.926,1.09,18.78,-0.3597,0.07956701577915311,-0.478,-0.361,-0.164,-7.194000000000001,0.2132,0.1151093393257037,0.078,0.162,0.48,4.264,,,,,,0.0,-65.8,3.762977544445356,-73.0,-64.0,-63.0,-1316.0,,,,,,0.0,,,,,,0.0
0.9056000000000001,0.03725372464600017,0.816,0.902,1.004,18.112000000000002,-0.3582,0.12437668591822182,-0.826,-0.33,-0.208,-7.164000000000001,0.29289999999999994,0.11899155432214506,0.168,0.267,0.76,5.857999999999999,,,,,,0.0,-67.4,0.4898979485566356,-68.0,-67.0,-67.0,-1348.0,,,,,,0.0,,,,,,0.0
0.9077,0.012478381305281557,0.88,0.909,0.936,18.154,-0.3411,0.021949715260112142,-0.386,-0.336,-0.306,-6.822,0.2509,0.015905659370173884,0.222,0.248,0.28,5.018,,,,,,0.0,-65.6,0.4898979485566356,-66.0,-66.0,-65.0,-1312.0,,,,,,0.0,,,,,,0.0
0.8341000000000001,0.13877243962689423,0.494,0.885,0.998,16.682000000000002,-0.47520000000000007,0.13135356866107595,-0.694,-0.496,-0.25,-9.504000000000001,0.26260000000000006,0.05671366678323665,0.172,0.256,0.384,5.252000000000001,,,,,,0.0,-69.6,3.7202150475476548,-75.0,-68.0,-66.0,-1392.0,,,,,,0.0,,,,,,0.0
0.7125,0.2454382814476992,0.406,0.62,1.262,14.25,-0.6488999999999999,0.20979845089990537,-1.074,-0.6220000000000001,-0.386,-12.977999999999998,0.18630000000000002,0.10802087761169134,-0.08,0.191,0.33,3.7260000000000004,,,,,,0.0,-70.6,3.8262252939417984,-78.0,-69.0,-67.0,-1412.0,,,,,,0.0,,,,,,0.0
0.9232999999999999,0.07308973936196518,0.812,0.917,1.094,18.465999999999998,-0.2419,0.35615135827341726,-0.656,-0.371,0.998,-4.838,0.21330000000000005,0.19633774471557933,0.038,0.161,1.008,4.266000000000001,,,,,,0.0,-66.0,0.6324555320336759,-67.0,-66.0,-65.0,-1320.0,,,,,,0.0,,,,,,0.0
0.9560000000000001,0.10479885495557671,0.786,0.944,1.144,19.12,-0.2481,0.07935861641939078,-0.386,-0.233,-0.128,-4.962,0.044199999999999996,0.08961450775404617,-0.104,0.044,0.174,0.8839999999999999,,,,,,0.0,-68.4,2.0591260281974,-72.0,-68.0,-66.0,-1368.0,,,,,,0.0,,,,,,0.0
0.9298,0.046937831223864614,0.866,0.923,1.022,18.596,-0.35050000000000003,0.04599510843557171,-0.456,-0.348,-0.264,-7.010000000000001,-0.0603,0.05889066139890093,-0.144,-0.068,0.03,-1.206,,,,,,0.0,-69.4,1.3564659966250536,-71.0,-69.0,-68.0,-1388.0,,,,,,0.0,,,,,,0.0
0.9410000000000001,0.048942823784493675,0.87,0.928,1.02,18.82,-0.28790000000000004,0.0763583001382299,-0.396,-0.286,-0.1,-5.758000000000001,-0.07440000000000002,0.034943382778431745,-0.122,-0.078,-0.014,-1.4880000000000004,,,,,,0.0,-69.6,1.854723699099141,-72.0,-70.0,-67.0,-1392.0,,,,,,0.0,,,,,,0.0
0.9156000000000001,0.01967333220377269,0.88,0.913,0.952,18.312,-0.34049999999999997,0.014281106399715663,-0.36,-0.339,-0.308,-6.81,-0.0383,0.030791394901822814,-0.09,-0.035,0.008,-0.766,,,,,,0.0,-68.6,0.4898979485566356,-69.0,-69.0,-68.0,-1372.0,,,,,,0.0,,,,,,0.0
0.9178000000000001,0.01866440462484671,0.894,0.911,0.956,18.356,-0.3376,0.014291256067959867,-0.37,-0.335,-0.32,-6.752,-0.052500000000000005,0.025548972582082434,-0.096,-0.057,-0.01,-1.05,,,,,,0.0,-68.4,0.4898979485566356,-69.0,-68.0,-68.0,-1368.0,,,,,,0.0,,,,,,0.0
0.9168000000000001,0.008908422980528043,0.902,0.918,0.934,18.336000000000002,-0.3382,0.009856977224281274,-0.354,-0.338,-0.32,-6.764,-0.04580000000000001,0.0073999999999999995,-0.058,-0.049,-0.03,-0.9160000000000001,,,,,,0.0,-68.4,0.4898979485566356,-69.0,-68.0,-68.0,-1368.0,,,,,,0.0,,,,,,0.0
0.9665000000000001,0.08436794414942203,0.902,0.923,1.168,19.330000000000002,-0.3542,0.029406801934246433,-0.434,-0.348,-0.316,-7.0840000000000005,-0.039900000000000005,0.026118767199085027,-0.078,-0.049,0.038,-0.798,,,,,,0.0,-68.4,0.4898979485566356,-69.0,-68.0,-68.0,-1368.0,,,,,,0.0,,,,,,0.0
0.8783,0.22701654124754875,0.422,0.952,1.2,17.566,-0.32400000000000007,0.14355208114130566,-0.626,-0.29700000000000004,-0.08,-6.480000000000001,0.18680000000000002,0.09992877463473672,0.07,0.14200000000000002,0.398,3.736,,,,,,0.0,-68.4,1.0198039027185568,-70.0,-68.0,-67.0,-1368.0,,,,,,0.0,,,,,,0.0
0.9201,0.04604986427775874,0.854,0.91,1.032,18.402,-0.28800000000000003,0.07561745830163824,-0.384,-0.281,-0.088,-5.760000000000001,0.2353,0.04799281196179278,0.152,0.225,0.318,4.706,,,,,,0.0,-68.4,0.4898979485566356,-69.0,-68.0,-68.0,-1368.0,,,,,,0.0,,,,,,0.0
0.9197000000000003,0.010281536850101736,0.902,0.919,0.944,18.394000000000005,-0.31399999999999995,0.015607690412101343,-0.35,-0.315,-0.288,-6.279999999999999,0.24169999999999997,0.009555626614722867,0.22,0.242,0.262,4.834,,,,,,0.0,-68.6,0.4898979485566356,-69.0,-69.0,-68.0,-1372.0,,,,,,0.0,,,,,,0.0
0.8991,0.03947898174978682,0.802,0.914,0.944,17.982,-0.32009999999999994,0.02731647854317976,-0.356,-0.329,-0.244,-6.401999999999999,0.21800000000000003,0.057309685045374315,0.11,0.239,0.294,4.36,,,,,,0.0,-67.0,2.0976176963403033,-69.0,-68.0,-63.0,-1340.0,,,,,,0.0,,,,,,0.0
0.7756000000000001,0.20319409440237185,0.452,0.743,1.278,15.512,-0.4889,0.2185035239990422,-0.804,-0.547,0.006,-9.778,0.2724,0.2589066240944793,-0.064,0.206,0.696,5.4479999999999995,,,,,,0.0,-67.0,2.280350850198276,-70.0,-67.0,-63.0,-1340.0,-96.0,2.0,-98.0,,-94.0,-768.0,,,,,,0.0
0.6649999999999998,0.08980534505250785,0.542,0.669,0.94,13.299999999999997,-0.34620000000000006,0.19617838820828354,-1.006,-0.33599999999999997,-0.02,-6.924000000000001,0.7268000000000001,0.15438575063780982,0.406,0.8069999999999999,0.896,14.536000000000001,,,,,,0.0,-65.4,0.7999999999999999,-66.0,-66.0,-64.0,-1308.0,,,,,,0.0,,,,,,0.0
0.20350000000000001,0.14588060186330462,-0.034,0.198,0.59,4.07,-0.9401000000000002,0.14828550165137522,-1.312,-0.913,-0.712,-18.802000000000003,0.27349999999999997,0.13683840835087202,0.014,0.29300000000000004,0.6,5.47,,,,,,0.0,-65.8,1.5999999999999999,-67.0,-67.0,-63.0,-1316.0,,,,,,0.0,,,,,,0.0
0.0089,0.09843673094937681,-0.158,0.035,0.134,0.178,-0.9693999999999999,0.1193601273457766,-1.236,-0.95,-0.752,-19.387999999999998,0.23019999999999996,0.11271894250745967,-0.104,0.251,0.392,4.603999999999999,,,,,,0.0,-65.2,1.4696938456699067,-68.0,-65.0,-64.0,-1304.0,,,,,,0.0,,,,,,0.0
0.00021052631578947386,0.06555638709688535,-0.112,-0.002,0.124,0.0040000000000000036,-0.974421052631579,0.08850710098747874,-1.092,-1.0,-0.832,-18.514,0.23242105263157892,0.10938214796587609,0.012,0.224,0.46,4.4159999999999995,,,,,,0.0,-65.42105263157895,1.0420520985907018,-67.0,-65.0,-64.0,-1243.0,,,,,,0.0,,,,,,0.0
0.019699999999999995,0.1684164778161567,-0.346,0.09,0.254,0.3939999999999999,-0.9934000000000001,0.21252679831023663,-1.37,-0.996,-0.526,-19.868000000000002,0.25630000000000003,0.11924307107752632,0.086,0.22299999999999998,0.556,5.126,,,,,,0.0,-69.4,2.3323807579381204,-74.0,-68.0,-68.0,-1388.0,,,,,,0.0,,,,,,0.0
0.6289,0.22117276052895846,0.214,0.627,1.032,12.578,-0.4398000000000001,0.19868759397607086,-0.952,-0.424,-0.162,-8.796000000000001,0.7594,0.2581504212663617,0.21,0.803,1.166,15.187999999999999,,,,,,0.0,-66.0,2.756809750418044,-70.0,-66.0,-63.0,-1320.0,,,,,,0.0,,,,,,0.0
0.8728000000000001,0.14000628557318417,0.708,0.821,1.286,17.456000000000003,-0.3324000000000001,0.1622979975230748,-0.64,-0.365,0.014,-6.6480000000000015,0.0948,0.23000295650273714,-0.244,0.057999999999999996,0.568,1.896,,,,,,0.0,-69.4,4.6303347611160905,-75.0,-71.0,-61.0,-1388.0,,,,,,0.0,,,,,,0.0
0.9314,0.0754323538012702,0.8,0.945,1.052,18.628,-0.3995000000000001,0.07914006570631592,-0.526,-0.402,-0.222,-7.990000000000001,0.21610000000000001,0.12731924442125786,0.064,0.202,0.632,4.322,,,,,,0.0,-71.0,3.3466401061363023,-77.0,-70.0,-68.0,-1420.0,,,,,,0.0,,,,,,0.0
0.9053000000000001,0.07643369675738575,0.728,0.933,0.984,18.106,-0.2223,0.12627157241437997,-0.348,-0.246,0.27,-4.446,0.2998,0.11337530595328069,0.172,0.29,0.56,5.996,,,,,,0.0,-69.0,1.0954451150103321,-70.0,-69.0,-67.0,-1380.0,,,,,,0.0,,,,,,0.0
0.9175000000000001,0.15408682617277833,0.588,0.938,1.148,18.35,-0.03219999999999999,0.17034541379209478,-0.286,-0.047,0.304,-0.6439999999999999,0.047099999999999996,0.20115911612452464,-0.228,-0.044000000000000004,0.492,0.942,,,,,,0.0,-68.6,2.8705400188814645,-72.0,-69.0,-64.0,-1372.0,,,,,,0.0,,,,,,0.0
0.6686000000000001,0.574953945981763,-0.04,0.719,1.526,13.372000000000002,-0.3328,0.4864600291904773,-1.088,-0.249,0.728,-6.656,0.3291,0.46756795228073533,-0.45,0.32599999999999996,0.944,6.582,,,,,,0.0,-72.4,1.624807680927192,-74.0,-73.0,-70.0,-1448.0,,,,,,0.0,,,,,,0.0
-0.6369,0.33210207768094435,-1.064,-0.824,0.06,-12.738,-0.4096,0.1339994029837447,-0.576,-0.465,-0.072,-8.192,0.37649999999999995,0.3377969064393574,0.008,0.226,0.88,7.529999999999999,,,,,,0.0,-72.4,1.0198039027185568,-74.0,-72.0,-71.0,-1448.0,,,,,,0.0,,,,,,0.0
-0.8127000000000001,0.02603286384553185,-0.868,-0.812,-0.728,-16.254,-0.46820000000000006,0.2909789683121445,-0.744,-0.51,0.722,-9.364,0.12,0.16137781755867192,-0.104,0.078,0.492,2.4,,,,,,0.0,-71.2,1.7204650534085253,-73.0,-72.0,-68.0,-1424.0,,,,,,0.0,,,,,,0.0
-0.5002,0.20562674923268132,-0.858,-0.418,-0.226,-10.004,-0.14999999999999997,0.19127048909855382,-0.488,-0.19,0.222,-2.9999999999999996,0.8474,0.16908826097633153,0.366,0.912,1.016,16.948,,,,,,0.0,-73.8,2.4819347291981715,-78.0,-73.0,-71.0,-1476.0,-102.0,0.0,-102.0,,-102.0,-408.0,,,,,,0.0
-0.3182105263157894,0.1742664562786927,-0.592,-0.306,0.172,-6.0459999999999985,0.64,0.2626656870584636,0.272,0.526,1.286,12.16,0.6697894736842105,0.27423838630063374,0.068,0.764,1.062,12.725999999999999,,,,,,0.0,-72.42105263157895,1.3885164166603075,-75.0,-72.0,-71.0,-1376.0,-99.71428571428571,1.4846149779161804,-101.0,,-98.0,-698.0,,,,,,0.0
-0.39430000000000004,0.48987315705190465,-1.352,-0.526,0.498,-7.886000000000001,0.5649000000000002,0.14579777090202717,0.27,0.592,0.846,11.298000000000004,0.5957999999999999,0.21829878607083456,0.272,0.554,0.992,11.915999999999999,-95.06666666666666,2.4073960113690385,-99.0,,-93.0,-1426.0,-71.25,0.9937303457175896,-73.0,-71.0,-70.0,-1425.0,-92.8,3.059411708155671,-98.0,-92.0,-89.0,-1856.0,,,,,,0.0
-0.5468,0.010851727973000437,-0.562,-0.548,-0.506,-10.936,0.44270000000000004,0.022479101405527755,0.398,0.447,0.494,8.854000000000001,0.7384,0.021859551687992158,0.704,0.738,0.806,14.767999999999999,-95.1,0.9949874371066199,-96.0,-96.0,-94.0,-1902.0,-69.85,0.4769696007084729,-71.0,-70.0,-69.0,-1397.0,-98.33333333333333,2.6874192494328497,-101.0,,-94.0,-1180.0,,,,,,0.0
-0.5730000000000001,0.06395154415649398,-0.81,-0.553,-0.482,-11.46,0.45149999999999996,0.07580995976782998,0.206,0.462,0.584,9.03,0.7545,0.0931318957178474,0.638,0.726,1.03,15.09,-96.0,0.6859943405700354,-97.0,,-95.0,-1632.0,-70.2,0.39999999999999997,-71.0,-70.0,-70.0,-1404.0,-98.5,1.9364916731037085,-100.0,,-94.0,-1182.0,,,,,,0.0
-0.5242,0.3839723427540062,-1.47,-0.473,0.062,-10.484,0.1568,0.3652847656281329,-0.586,0.301,0.604,3.1359999999999997,0.7392999999999998,0.28963237042844503,0.102,0.709,1.378,14.785999999999998,-105.0,0.0,-105.0,,-105.0,-420.0,-73.6,2.1071307505705477,-77.0,-74.0,-70.0,-1472.0,-96.88888888888889,4.382907316292449,-101.0,,-92.0,-872.0,,,,,,0.0
-0.4614999999999999,0.022170926908904823,-0.51,-0.463,-0.41,-9.229999999999999,0.12149999999999998,0.10749674413674118,-0.072,0.16599999999999998,0.294,2.4299999999999997,0.9141999999999999,0.02499519953911152,0.844,0.917,0.966,18.284,-97.53333333333333,2.8252826800556123,-101.0,,-94.0,-1463.0,-73.0,1.2649110640673518,-74.0,-74.0,-71.0,-1460.0,-101.0,0.0,-101.0,,-101.0,-404.0,,,,,,0.0
-0.4081,0.011549458861782219,-0.442,-0.406,-0.392,-8.162,0.2415,0.10464774245056602,-0.008,0.239,0.472,4.83,0.9269000000000001,0.029006723358559465,0.854,0.925,0.99,18.538,-101.8,0.4,-102.0,,-101.0,-509.0,-71.9,0.6244997998398398,-74.0,-72.0,-71.0,-1438.0,,,,,,0.0,,,,,,0.0
-0.40970000000000006,0.0041605288125429315,-0.416,-0.41,-0.402,-8.194,0.30079999999999996,0.00964157663455517,0.288,0.298,0.32,6.015999999999999,0.9106,0.008392854103342923,0.892,0.91,0.93,18.212,-99.0,0.0,-99.0,,-99.0,-396.0,-72.35,0.47696960070847283,-73.0,-72.0,-72.0,-1447.0,,,,,,0.0,,,,,,0.0
-0.41689999999999994,0.00637102817447859,-0.432,-0.416,-0.404,-8.338,0.30049999999999993,0.012375378782081788,0.27,0.306,0.318,6.009999999999999,0.9007000000000002,0.009905049217444615,0.87,0.902,0.92,18.014000000000003,-98.0,0.0,-98.0,,-98.0,-392.0,-73.0,0.0,-73.0,-73.0,-73.0,-1460.0,,,,,,0.0,,,,,,0.0
-0.41950000000000004,0.005472659317004856,-0.436,-0.418,-0.414,-8.39,0.30779999999999996,0.012130952147296604,0.28,0.311,0.334,6.155999999999999,0.9019000000000001,0.009807650075323863,0.872,0.903,0.926,18.038000000000004,-99.45454545454545,1.233150906022776,-101.0,,-98.0,-1094.0,-73.0,0.0,-73.0,-73.0,-73.0,-1460.0,-98.0,0.0,-98.0,,-98.0,-392.0,,,,,,0.0
-0.4275,0.021673716801693246,-0.472,-0.422,-0.386,-6.84,0.268625,0.07384347889285824,0.066,0.298,0.33,4.298,0.9027499999999999,0.01720283406883879,0.856,0.908,0.926,14.443999999999999,-99.6,0.8,-100.0,,-98.0,-498.0,-71.66666666666667,0.6666666666666666,-73.0,,-71.0,-645.0,-100.28571428571429,1.979486637221574,-102.0,,-98.0,-702.0,,,,,,0.0
-0.24116666666666667,0.21371703774435538,-0.522,-0.245,0.078,-2.894,0.5906666666666666,0.1986224783071868,0.07,0.576,0.952,7.087999999999999,0.7226666666666666,0.12142853408029305,0.55,0.717,0.92,8.671999999999999,,,,,,0.0,-70.9090909090909,1.4431370787625042,-72.0,,-69.0,-780.0,-100.25,1.299038105676658,-101.0,,-98.0,-401.0,,,,,,0.0
-0.41200000000000003,0.03439767433998991,-0.466,-0.418,-0.338,-8.24,0.619,0.04486201065489598,0.508,0.626,0.71,12.38,0.6913,0.0327736174384214,0.638,0.6859999999999999,0.768,13.826,,,,,,0.0,-76.25,1.5771810295587503,-79.0,-76.0,-72.0,-1525.0,-97.75,1.5343293866268306,-101.0,,-96.0,-1173.0,,,,,,0.0
-0.4542999999999999,0.07259276823485933,-0.562,-0.423,-0.328,-9.085999999999999,0.6909,0.06846743751594621,0.612,0.675,0.896,13.818,0.49119999999999997,0.21348198987268224,0.096,0.562,0.75,9.824,-100.0,0.0,-100.0,,-100.0,-300.0,-74.5,2.598076211353316,-79.0,-73.0,-71.0,-1490.0,-96.91666666666667,3.121386800054674,-101.0,,-93.0,-1163.0,,,,,,0.0
-0.4856000000000001,0.02014547095503106,-0.528,-0.479,-0.464,-9.712000000000002,0.8263,0.04722827542902662,0.742,0.825,0.95,16.526,0.06380000000000001,0.0766,-0.084,0.057999999999999996,0.192,1.2760000000000002,-101.6,0.8,-102.0,,-100.0,-508.0,-73.75,0.4330127018922193,-74.0,-74.0,-73.0,-1475.0,-95.83333333333333,5.128894184476373,-103.0,,-91.0,-1150.0,,,,,,0.0
-0.47120000000000006,0.014620533505997646,-0.528,-0.465,-0.458,-9.424000000000001,0.8341999999999998,0.016320539206778683,0.806,0.834,0.882,16.683999999999997,0.038599999999999995,0.04321620066595396,-0.048,0.056,0.146,0.7719999999999999,-101.36363636363636,0.4810456929208347,-102.0,,-101.0,-1115.0,-74.6,1.7435595774162693,-78.0,-74.0,-73.0,-1492.0,-91.61538461538461,0.48650425541051995,-92.0,,-91.0,-1191.0,,,,,,0.0
0.17180000000000004,0.7583547718581324,-0.858,0.367,1.486,3.436000000000001,0.6278999999999998,0.2782074585628502,-0.072,0.718,0.946,12.557999999999996,0.3621,0.537829889463202,-0.574,0.567,1.026,7.242,-101.0,0.0,-101.0,,-101.0,-101.0,-72.3,2.7766886753829643,-76.0,-72.0,-68.0,-1446.0,-97.33333333333333,2.0548046676563256,-100.0,,-95.0,-1168.0,,,,,,0.0
0.9255000000000001,0.1627831379473931,0.688,0.911,1.374,18.51,-0.03169999999999999,0.3057497506131444,-0.57,-0.121,0.492,-0.6339999999999999,0.03339999999999999,0.2365857983903514,-0.296,-0.033,0.424,0.6679999999999998,,,,,,0.0,-75.15,4.126439142893058,-81.0,-74.0,-71.0,-1503.0,,,,,,0.0,,,,,,0.0
0.6999000000000001,0.2075037108101925,0.15,0.738,1.078,13.998000000000001,-0.44089999999999996,0.1250111595018621,-0.68,-0.424,-0.08,-8.818,0.4257000000000001,0.5166706010602887,-0.24,0.447,1.554,8.514000000000001,,,,,,0.0,-69.8,2.891366458960192,-81.0,-69.0,-67.0,-1396.0,-99.0,0.0,-99.0,,-99.0,-396.0,,,,,,0.0
0.32489999999999997,0.2933983469619418,-0.112,0.279,1.126,6.497999999999999,-0.15510000000000002,0.18810154172680243,-0.466,-0.151,0.39,-3.1020000000000003,0.9966000000000002,0.6006753199524681,0.392,0.986,3.086,19.932000000000002,,,,,,0.0,-72.45,1.116915395184434,-74.0,-72.0,-69.0,-1449.0,,,,,,0.0,,,,,,0.0
0.271,0.003974921382870362,0.258,0.27,0.278,5.42,-0.15710000000000002,0.005117616632769599,-0.168,-0.158,-0.144,-3.1420000000000003,1.0167000000000002,0.0062697687357669,1.004,1.016,1.03,20.334000000000003,,,,,,0.0,-72.75,0.4330127018922193,-73.0,-73.0,-72.0,-1455.0,-97.0,0.0,-97.0,,-97.0,-388.0,,,,,,0.0
0.2673,0.007437069315261227,0.252,0.268,0.28,5.346,-0.1562,0.005963220606350235,-0.168,-0.157,-0.142,-3.124,1.0158,0.013400000000000013,0.974,1.018,1.032,20.316,,,,,,0.0,-72.8,0.39999999999999997,-73.0,-73.0,-72.0,-1456.0,-99.0,0.0,-99.0,,-99.0,-396.0,,,,,,0.0
0.04239999999999999,0.4313006376067626,-0.68,0.271,0.636,0.8479999999999999,-0.14849999999999997,0.38267682187454205,-0.962,-0.155,0.632,-2.9699999999999993,0.9017,0.38917413840079357,0.328,0.916,1.874,18.034,,,,,,0.0,-71.65,2.4753787588973126,-75.0,-72.0,-68.0,-1433.0,-98.4,1.4047538337136984,-100.0,,-96.0,-1476.0,,,,,,0.0
0.7194999999999999,0.22887977193277695,0.336,0.7949999999999999,1.09,14.389999999999999,0.19419999999999998,0.37764528330167185,-0.52,0.243,1.02,3.884,0.5905,0.2567472492549823,0.06,0.65,0.984,11.81,,,,,,0.0,-70.1,2.188606862823929,-73.0,-70.0,-67.0,-1402.0,-100.0,2.0,-101.0,,-96.0,-500.0,,,,,,0.0
0.9702999999999999,0.37607726599729474,0.462,0.88,1.628,19.406,-0.3013,0.3248385906877445,-0.962,-0.28600000000000003,0.304,-6.026,-0.0117,0.27391624632357975,-0.864,0.068,0.294,-0.234,,,,,,0.0,-68.25,5.521548695791789,-78.0,-65.0,-63.0,-1365.0,,,,,,0.0,,,,,,0.0
0.9406000000000001,0.1252151747992231,0.728,0.962,1.23,18.812,-0.2419,0.17296759812172915,-0.514,-0.193,-0.012,-4.838,0.35910000000000003,0.07335795798684693,0.16,0.363,0.488,7.182,,,,,,0.0,-70.5,3.3391615714128,-76.0,-70.0,-65.0,-1410.0,,,,,,0.0,,,,,,0.0
0.9559,0.09428144037932389,0.828,0.95,1.12,19.118,-0.3817,0.12191681590330351,-0.574,-0.379,-0.208,-7.6339999999999995,0.191,0.09770875088752286,0.06,0.164,0.44,3.8200000000000003,,,,,,0.0,-70.75,3.359687485466468,-76.0,-71.0,-67.0,-1415.0,-103.0,0.0,-103.0,,-103.0,-309.0,,,,,,0.0
0.8873000000000001,0.0685164943644959,0.786,0.885,0.992,17.746000000000002,-0.37690000000000007,0.16270030731378476,-0.584,-0.384,-0.142,-7.538000000000001,0.32250000000000006,0.09392949483522202,0.206,0.29200000000000004,0.51,6.450000000000001,,,,,,0.0,-72.8,2.7856776554368237,-76.0,-74.0,-69.0,-1456.0,-103.0,0.0,-103.0,,-103.0,-103.0,,,,,,0.0
0.9193,0.05921241423890772,0.838,0.906,1.062,18.386,-0.32509999999999994,0.08249236328291243,-0.496,-0.332,-0.09,-6.501999999999999,0.262,0.11132475016814544,0.15,0.228,0.542,5.24,,,,,,0.0,-72.3,1.452583904633395,-76.0,-73.0,-70.0,-1446.0,,,,,,0.0,,,,,,0.0
0.8935999999999998,0.013139254164525487,0.86,0.895,0.918,17.871999999999996,-0.3606,0.022190989162270344,-0.414,-0.361,-0.32,-7.212,0.26270000000000004,0.04049827156805584,0.194,0.247,0.356,5.254000000000001,,,,,,0.0,-71.1,0.7681145747868607,-72.0,-71.0,-70.0,-1422.0,,,,,,0.0,,,,,,0.0
0.9252,0.2198121015776884,0.646,0.857,1.31,18.504,-0.31720000000000004,0.0683385689051212,-0.482,-0.317,-0.214,-6.344000000000001,0.06450000000000002,0.14409007599415027,-0.232,0.101,0.224,1.2900000000000003,,,,,,0.0,-68.95,1.745709025009609,-72.0,-69.0,-66.0,-1379.0,,,,,,0.0,,,,,,0.0
0.9225,0.08018447480653597,0.806,0.924,1.112,18.45,-0.3591,0.04550813114158831,-0.424,-0.363,-0.254,-7.1819999999999995,-0.04240000000000001,0.054840131290871286,-0.174,-0.044,0.048,-0.8480000000000001,,,,,,0.0,-64.4,1.5620499351813308,-69.0,-64.0,-63.0,-1288.0,,,,,,0.0,,,,,,0.0
0.9137000000000001,0.01558557024943266,0.88,0.919,0.93,18.274,-0.3447,0.0196089265386966,-0.37,-0.351,-0.308,-6.894,-0.030700000000000005,0.010738249391777041,-0.052,-0.028999999999999998,-0.008,-0.6140000000000001,,,,,,0.0,-66.9,0.43588989435406733,-67.0,-67.0,-65.0,-1338.0,,,,,,0.0,,,,,,0.0
0.9146000000000001,0.012249081598226045,0.896,0.913,0.946,18.292,-0.35,0.011983321743156184,-0.37,-0.351,-0.33,-7.0,-0.03580000000000001,0.014012851244482689,-0.058,-0.034,-0.008,-0.7160000000000002,,,,,,0.0,-66.6,0.4898979485566356,-67.0,-67.0,-66.0,-1332.0,,,,,,0.0,,,,,,0.0
0.9991999999999998,0.14639180304921443,0.662,0.928,1.23,19.983999999999995,-0.3506,0.06162824027992361,-0.412,-0.362,-0.162,-7.0120000000000005,0.017899999999999996,0.08626349169840043,-0.056,-0.022,0.312,0.35799999999999993,,,,,,0.0,-67.35,0.7921489758877429,-68.0,-68.0,-66.0,-1347.0,-101.0,0.0,-101.0,,-101.0,-404.0,,,,,,0.0
0.8656,0.18788038748097152,0.518,0.942,1.104,17.312,-0.29989999999999994,0.17763611682312808,-0.558,-0.34299999999999997,0.134,-5.997999999999999,0.20379999999999998,0.12240571882064988,0.048,0.19,0.568,4.076,,,,,,0.0,-73.35,1.3143439428094914,-74.0,-74.0,-68.0,-1467.0,,,,,,0.0,,,,,,0.0
0.8938,0.033135479474424384,0.838,0.887,0.972,17.876,-0.348,0.0463767182970076,-0.426,-0.357,-0.254,-6.96,0.24430000000000004,0.05654476103053227,0.142,0.244,0.396,4.886000000000001,,,,,,0.0,-71.1,0.7681145747868607,-73.0,-71.0,-70.0,-1422.0,,,,,,0.0,,,,,,0.0
0.8950999999999999,0.006913031173081753,0.87,0.896,0.904,17.901999999999997,-0.37239999999999995,0.009308061022576085,-0.39,-0.371,-0.354,-7.4479999999999995,0.25220000000000004,0.011813551540497897,0.236,0.25,0.276,5.0440000000000005,,,,,,0.0,-71.2,0.39999999999999997,-72.0,-71.0,-71.0,-1424.0,,,,,,0.0,,,,,,0.0
0.8973000000000001,0.004744470465710587,0.886,0.897,0.902,17.946,-0.3692000000000001,0.006112282715974456,-0.384,-0.369,-0.36,-7.384000000000001,0.25050000000000006,0.009630680142129117,0.23,0.252,0.27,5.010000000000001,,,,,,0.0,-71.55,0.4974937185533099,-72.0,-72.0,-71.0,-1431.0,,,,,,0.0,,,,,,0.0
0.8993,0.050403472102624046,0.764,0.903,0.988,17.986,-0.3195,0.10440665687589082,-0.394,-0.361,-0.01,-6.39,0.1558,0.09882894312902471,-0.016,0.176,0.294,3.1159999999999997,,,,,,0.0,-67.4,2.690724809414742,-72.0,-68.0,-64.0,-1348.0,,,,,,0.0,,,,,,0.0
0.8081000000000002,0.13700142335027035,0.622,0.781,1.198,16.162000000000003,-0.48419999999999996,0.19608967336399946,-0.91,-0.456,0.056,-9.684,0.36419999999999997,0.2881429506338824,-0.226,0.432,0.728,7.284,,,,,,0.0,-65.7,2.3473389188611002,-70.0,-65.0,-63.0,-1314.0,,,,,,0.0,,,,,,0.0
0.6220999999999999,0.1437003479466908,0.37,0.633,0.886,12.441999999999998,-0.2975,0.26367167083325427,-0.832,-0.222,0.048,-5.95,0.7382000000000001,0.09686671254873884,0.552,0.7,0.926,14.764000000000001,,,,,,0.0,-68.55,3.1060424980994714,-72.0,-69.0,-63.0,-1371.0,,,,,,0.0,,,,,,0.0
0.8029,0.21161330298447684,0.478,0.871,1.168,16.058,-0.4504,0.26514418718878224,-0.848,-0.40700000000000003,0.246,-9.008000000000001,0.36719999999999997,0.10624575285629069,0.184,0.368,0.54,7.343999999999999,,,,,,0.0,-69.45,2.3553131426627756,-73.0,-70.0,-66.0,-1389.0,,,,,,0.0,,,,,,0.0
0.9164,0.029493050028777966,0.87,0.918,1.008,18.328,-0.3396,0.049012651427973154,-0.436,-0.344,-0.248,-6.792,0.26139999999999997,0.058041709140927274,0.176,0.253,0.4,5.228,,,,,,0.0,-69.45,0.804673846971554,-71.0,-69.0,-69.0,-1389.0,,,,,,0.0,,,,,,0.0
0.5595000000000001,0.4164828327794556,-0.094,0.846,0.976,11.190000000000001,-0.6883000000000001,0.30280176683764576,-1.152,-0.763,-0.19,-13.766000000000002,0.1902,0.10623728159172748,0.028,0.182,0.406,3.8040000000000003,,,,,,0.0,-68.9,2.046948949045872,-71.0,-70.0,-66.0,-1378.0,,,,,,0.0,,,,,,0.0
0.4917000000000001,0.20212300710211095,0.216,0.44,0.874,9.834000000000001,-0.5950000000000001,0.1397232979856974,-0.888,-0.594,-0.32,-11.900000000000002,0.7161,0.3147535385027466,0.288,0.648,1.544,14.322,,,,,,0.0,-65.6,3.0066592756745814,-71.0,-64.0,-62.0,-1312.0,,,,,,0.0,,,,,,0.0
0.8842000000000001,0.15799734174979024,0.656,0.913,1.09,17.684,-0.3798,0.19894813394450325,-0.774,-0.381,-0.04,-7.596,0.12890000000000001,0.15234890875880927,-0.098,0.14100000000000001,0.47,2.5780000000000003,,,,,,0.0,-69.6,4.715930449020639,-75.0,-71.0,-63.0,-1392.0,,,,,,0.0,,,,,,0.0
0.943,0.06931233656427982,0.792,0.953,1.094,18.86,-0.371,0.08602441513895923,-0.498,-0.372,-0.2,-7.42,0.18380000000000002,0.19100879560899808,0.02,0.136,0.95,3.676,,,,,,0.0,-72.15,1.7399712641305314,-75.0,-72.0,-70.0,-1443.0,,,,,,0.0,,,,,,0.0
0.9321999999999999,0.031163440118189754,0.878,0.947,0.988,18.644,-0.20549999999999996,0.08651213787671647,-0.382,-0.2,-0.022,-4.109999999999999,0.25660000000000005,0.0740083779041265,0.136,0.28400000000000003,0.352,5.132000000000001,,,,,,0.0,-73.5,5.014977567247933,-80.0,-73.0,-66.0,-1470.0,,,,,,0.0,,,,,,0.0
0.9657,0.10577197171273682,0.838,0.967,1.264,19.314,-0.2554,0.242071972768431,-0.658,-0.316,0.184,-5.1080000000000005,0.1677,0.05455740096448877,0.076,0.15000000000000002,0.268,3.3539999999999996,-101.0,0.0,-101.0,,-101.0,-303.0,-69.4,3.3226495451672293,-74.0,-70.0,-64.0,-1388.0,,,,,,0.0,,,,,,0.0
0.9035,0.09706260866059598,0.688,0.918,1.122,18.07,-0.3533,0.06746932636391148,-0.436,-0.376,-0.196,-7.066,0.1825,0.10167964398049395,-0.024,0.173,0.358,3.65,-96.55555555555556,1.8324913891634045,-101.0,,-95.0,-869.0,-76.7,1.977371993328519,-80.0,-77.0,-74.0,-1534.0,-95.5,1.5,-97.0,,-94.0,-764.0,,,,,,0.0
0.9818,0.20201376190745024,0.776,0.905,1.474,19.636,0.1325,0.32747389208912514,-0.218,0.068,1.426,2.65,-0.08299999999999999,0.11287781004254115,-0.25,-0.12,0.152,-1.66,,,,,,0.0,-73.05,4.903825037661927,-80.0,-75.0,-66.0,-1461.0,,,,,,0.0,,,,,,0.0
0.14359999999999998,0.6952526447270805,-1.61,0.203,1.174,2.8719999999999994,-0.6149999999999999,0.5464882432404197,-2.226,-0.421,0.028,-12.299999999999997,0.4197,0.6867588441367173,-0.448,0.33999999999999997,3.07,8.394,,,,,,0.0,-72.9,4.170131892398608,-79.0,-71.0,-68.0,-1458.0,,,,,,0.0,,,,,,0.0
-0.18887500000000002,0.13242727957260164,-0.524,-0.172,0.054,-3.0220000000000002,-0.483625,0.15971884477105389,-0.584,-0.544,0.076,-7.738,0.8711249999999999,0.12137950558063747,0.468,0.875,1.102,13.937999999999999,,,,,,0.0,-80.75,0.9682458365518543,-81.0,-81.0,-77.0,-1292.0,,,,,,0.0,,,,,,0.0
-0.16505263157894737,0.3427629952520071,-0.86,-0.174,0.384,-3.136,-0.5327368421052633,0.10174728347867995,-0.756,-0.55,-0.306,-10.122000000000002,0.8949473684210525,0.16490682335128415,0.616,0.87,1.43,17.003999999999998,,,,,,0.0,-80.15789473684211,4.693367749391148,-85.0,-81.0,-69.0,-1523.0,,,,,,0.0,,,,,,0.0
0.15839999999999999,0.28485687634319096,-0.386,0.22499999999999998,0.46,3.1679999999999997,-0.4494000000000001,0.18044068277414604,-0.9,-0.427,-0.174,-8.988000000000001,1.0042000000000002,0.18053575823088344,0.742,0.928,1.35,20.084000000000003,,,,,,0.0,-70.3,1.5524174696260025,-74.0,-70.0,-69.0,-1406.0,-103.0,0.0,-103.0,,-103.0,-412.0,,,,,,0.0
-0.49230000000000007,0.29963262505942173,-0.992,-0.431,0.048,-9.846000000000002,0.3758,0.3182451256500247,-0.192,0.437,0.808,7.516,0.5522999999999999,0.402280635875007,-0.184,0.639,1.078,11.045999999999998,-97.4,3.826225293941798,-102.0,,-93.0,-974.0,-71.0,2.6457513110645907,-74.0,-71.5,-67.0,-1420.0,-89.66666666666667,0.4714045207910317,-90.0,,-89.0,-538.0,,,,,,0.0
-0.6119,0.13220359299202122,-0.922,-0.602,-0.362,-12.238,0.6987999999999999,0.18729698342472045,0.44,0.666,1.32,13.975999999999997,0.2549,0.13438522984316395,0.012,0.278,0.486,5.098,-91.88888888888889,1.0999438818457403,-93.0,,-90.0,-1654.0,-72.1,2.3430749027719964,-76.0,-71.0,-68.0,-1442.0,-93.57142857142857,2.9692299558323607,-97.0,,-89.0,-1310.0,,,,,,0.0
-0.5335000000000001,0.006476881965884517,-0.546,-0.534,-0.526,-10.670000000000002,0.7785,0.026175370102445555,0.702,0.784,0.824,15.57,0.21350000000000002,0.032685623751123376,0.168,0.206,0.276,4.2700000000000005,-92.66666666666667,0.4714045207910317,-93.0,,-92.0,-1112.0,-70.1,0.30000000000000004,-71.0,-70.0,-70.0,-1402.0,-98.0,0.0,-98.0,,-98.0,-392.0,,,,,,0.0
-0.5345000000000001,0.004852834223420375,-0.544,-0.534,-0.528,-10.690000000000001,0.7802,0.013370115930686625,0.75,0.783,0.798,15.604000000000001,0.17830000000000001,0.010904586191139948,0.152,0.179,0.198,3.5660000000000003,-93.0,0.0,-93.0,,-93.0,-558.0,-69.8,0.39999999999999997,-70.0,-70.0,-69.0,-1396.0,-96.66666666666667,0.4714045207910317,-97.0,,-96.0,-580.0,,,,,,0.0
-0.5186999999999999,0.1302816564217695,-0.846,-0.53,-0.212,-10.373999999999999,0.7795,0.026228800963826022,0.726,0.788,0.814,15.59,0.19050000000000003,0.06073508047249135,0.112,0.184,0.368,3.8100000000000005,-93.0,0.0,-93.0,,-93.0,-186.0,-71.4,1.9078784028338915,-75.0,-70.5,-70.0,-1428.0,-98.125,1.964529205687714,-101.0,,-95.0,-1570.0,,,,,,0.0
-0.6572000000000001,0.23311662317389553,-1.362,-0.655,-0.242,-13.144000000000002,0.6681999999999999,0.14232062394466938,0.434,0.6739999999999999,0.902,13.363999999999999,0.1992,0.17469905552120193,-0.032,0.159,0.798,3.9839999999999995,-94.4,0.4898979485566356,-95.0,,-94.0,-944.0,-73.9,2.6999999999999997,-79.0,-73.0,-71.0,-1478.0,-95.28571428571429,2.864276807966203,-98.0,,-91.0,-1334.0,,,,,,0.0
-0.7075,0.07899525302193798,-0.784,-0.756,-0.574,-11.32,0.416625,0.09802223918580925,0.172,0.464,0.536,6.666,0.51825,0.24835345276440188,0.244,0.361,0.952,8.292,-94.8,0.4,-95.0,,-94.0,-948.0,-72.125,1.5360257159305635,-76.0,-72.0,-71.0,-1154.0,-93.0,2.8284271247461903,-97.0,,-91.0,-558.0,,,,,,0.0
-0.6678,0.020841305141473258,-0.708,-0.666,-0.638,-13.356,0.42699999999999994,0.031019348800385867,0.372,0.423,0.504,8.54,0.6058999999999999,0.07444051316319629,0.448,0.623,0.696,12.117999999999999,-94.0,0.0,-94.0,,-94.0,-752.0,-74.5,1.9621416870348585,-77.0,-74.5,-72.0,-1490.0,-93.3,2.3259406699226015,-97.0,-93.0,-90.0,-1866.0,,,,,,0.0
-0.6506,0.004476605857119882,-0.66,-0.65,-0.642,-13.011999999999999,0.41609999999999997,0.006495382975621992,0.402,0.416,0.424,8.322,0.6439999999999999,0.013341664064126346,0.624,0.648,0.662,12.879999999999999,-94.4,0.4898979485566356,-95.0,,-94.0,-944.0,-72.3,0.45825756949558394,-73.0,-72.0,-72.0,-1446.0,-90.0,0.6666666666666666,-91.0,,-89.0,-1620.0,,,,,,0.0
-0.6456999999999999,0.0071909665553387256,-0.656,-0.646,-0.626,-12.914,0.4124,0.009645724441429986,0.39,0.414,0.428,8.248,0.6501,0.01151477311977966,0.614,0.654,0.662,13.002,-94.0,0.0,-94.0,,-94.0,-564.0,-72.3,0.45825756949558394,-73.0,-72.0,-72.0,-1446.0,-93.5,3.5,-97.0,,-90.0,-748.0,,,,,,0.0
-0.6442000000000002,0.006630233781700316,-0.656,-0.644,-0.632,-12.884000000000004,0.4083,0.013285706605220505,0.382,0.408,0.44,8.166,0.6584000000000001,0.016811900546934,0.628,0.656,0.696,13.168000000000001,-94.0,0.0,-94.0,,-94.0,-376.0,-72.9,0.5385164807134504,-74.0,-73.0,-72.0,-1458.0,-89.33333333333333,0.4714045207910317,-90.0,,-89.0,-536.0,,,,,,0.0
-0.5373000000000001,0.2508794730542936,-1.106,-0.632,-0.194,-10.746000000000002,0.6019000000000001,0.17025331127470034,0.338,0.593,0.896,12.038000000000002,0.5119,0.1506326325867008,0.27,0.518,0.748,10.238,-102.0,1.0,-103.0,,-101.0,-816.0,-71.2,2.039607805437114,-74.0,-72.0,-68.0,-1424.0,-95.7,3.3181320046074116,-101.0,-96.5,-90.0,-1914.0,,,,,,0.0
-0.411,0.1074104277991667,-0.574,-0.415,-0.104,-6.576,0.8687499999999999,0.054694035323790094,0.794,0.864,0.994,13.899999999999999,0.15387499999999998,0.07845530176476284,0.044,0.163,0.368,2.4619999999999997,,,,,,0.0,-74.0,1.6583123951777,-76.0,-73.5,-72.0,-1184.0,-101.0,0.0,-101.0,,-101.0,-202.0,,,,,,0.0
-0.4034000000000001,0.0083928541033429,-0.424,-0.4,-0.392,-8.068000000000001,0.8540000000000001,0.012149074038789964,0.834,0.853,0.88,17.080000000000002,0.22149999999999997,0.03353132863457695,0.16,0.218,0.316,4.43,,,,,,0.0,-76.1,0.3,-77.0,-76.0,-76.0,-1522.0,,,,,,0.0,,,,,,0.0
-0.39830000000000004,0.005595533933415108,-0.41,-0.398,-0.388,-7.966000000000001,0.8535,0.011276080879454538,0.814,0.856,0.864,17.07,0.24379999999999996,0.015695859326586747,0.216,0.24,0.27,4.8759999999999994,,,,,,0.0,-78.4,0.6633249580710799,-79.0,-78.5,-77.0,-1568.0,-98.5,3.5,-102.0,,-95.0,-788.0,,,,,,0.0
-0.3941,0.006402343321003645,-0.41,-0.392,-0.386,-7.882000000000001,0.8558999999999998,0.008819863944528857,0.84,0.856,0.88,17.117999999999995,0.25389999999999996,0.012320308437697497,0.23,0.254,0.276,5.077999999999999,,,,,,0.0,-79.5,0.5,-80.0,-79.5,-79.0,-1590.0,,,,,,0.0,,,,,,0.0
-0.3929,0.004794788837894745,-0.4,-0.392,-0.384,-7.8580000000000005,0.8626999999999999,0.022318378077270752,0.844,0.856,0.956,17.253999999999998,0.25960000000000005,0.015525462956060289,0.208,0.262,0.278,5.192000000000001,,,,,,0.0,-78.6,1.3564659966250536,-80.0,-79.0,-76.0,-1572.0,-98.0,0.0,-98.0,,-98.0,-196.0,,,,,,0.0
-0.22030000000000002,0.7540982097843755,-1.0,-0.456,2.094,-4.406000000000001,0.5019999999999999,0.8444662219414107,-2.004,0.734,1.35,10.039999999999997,0.23220000000000002,0.5353757185379254,-0.892,0.312,1.086,4.644,,,,,,0.0,-72.8,1.8867962264113207,-76.0,-72.5,-70.0,-1456.0,-96.5,3.968626966596886,-102.0,,-90.0,-1544.0,,,,,,0.0
0.9746,0.2158259483936072,0.606,0.978,1.484,19.492,0.1567,0.4535210138461061,-0.276,-0.082,1.04,3.1340000000000003,0.2287,0.43610286630564576,-0.354,0.121,1.128,4.574,,,,,,0.0,-74.2,3.4292856398964493,-82.0,-73.5,-70.0,-1484.0,-102.0,0.0,-102.0,,-102.0,-204.0,,,,,,0.0
0.6507000000000001,0.49897746442098967,-0.114,0.913,1.25,13.014000000000001,-0.3389,0.27601701034537707,-1.128,-0.254,0.002,-6.778,0.34950000000000003,0.4590785880434852,-0.282,0.397,1.016,6.99,,,,,,0.0,-71.1,4.742362280551751,-82.0,-71.0,-66.0,-1422.0,,,,,,0.0,,,,,,0.0
0.023300000000000008,0.10312569999762425,-0.232,0.039,0.212,0.46600000000000014,-0.8508000000000001,0.2534256498462616,-1.384,-0.879,-0.472,-17.016000000000002,0.5385000000000001,0.17855965389751402,0.3,0.509,0.988,10.770000000000001,,,,,,0.0,-68.5,2.692582403567252,-73.0,-69.0,-65.0,-1370.0,,,,,,0.0,,,,,,0.0
-0.015700000000000002,0.018796542235209112,-0.068,-0.008,0.006,-0.31400000000000006,-0.8833,0.01697380334515516,-0.912,-0.886,-0.832,-17.666,0.4815999999999999,0.008708616422830901,0.468,0.481,0.5,9.631999999999998,,,,,,0.0,-70.1,0.3,-71.0,-70.0,-70.0,-1402.0,,,,,,0.0,,,,,,0.0
0.026947368421052633,0.031505176991810706,-0.016,0.03,0.104,0.512,-0.8682105263157895,0.011678044840723096,-0.882,-0.872,-0.846,-16.496000000000002,0.5109473684210526,0.029468044573224227,0.468,0.504,0.578,9.708,,,,,,0.0,-71.84210526315789,0.8743814592545343,-73.0,-72.0,-71.0,-1365.0,,,,,,0.0,,,,,,0.0
0.1427,0.09742746019475208,-0.026,0.11699999999999999,0.344,2.8539999999999996,-0.514,0.4296175042988821,-1.018,-0.6990000000000001,0.588,-10.280000000000001,0.7663,0.15036126495876523,0.48,0.748,1.04,15.326,,,,,,0.0,-70.9,1.3,-73.0,-71.0,-68.0,-1418.0,,,,,,0.0,,,,,,0.0
0.844,0.28468649423532544,0.352,0.7869999999999999,1.49,16.88,-0.37459999999999993,0.2396665183124251,-0.648,-0.45599999999999996,0.08,-7.491999999999999,0.6502999999999999,0.19474010886306908,0.354,0.62,1.134,13.005999999999998,,,,,,0.0,-67.2,1.1661903789690602,-69.0,-67.0,-66.0,-1344.0,,,,,,0.0,,,,,,0.0
0.017100000000000004,0.2682815498687899,-0.328,-0.023000000000000003,0.488,0.3420000000000001,-0.31339999999999996,0.6131903782676307,-1.16,-0.365,0.588,-6.267999999999999,0.6834,0.1733598569450263,0.44,0.629,1.004,13.668,,,,,,0.0,-68.6,2.0591260281974004,-71.0,-68.0,-66.0,-1372.0,,,,,,0.0,,,,,,0.0
-0.3551,0.1916199102389937,-0.882,-0.262,-0.136,-7.102,0.5966999999999999,0.05669664893095536,0.454,0.608,0.674,11.933999999999997,0.7143999999999999,0.118194077685813,0.472,0.721,0.892,14.287999999999998,,,,,,0.0,-70.0,1.7888543819998317,-73.0,-69.0,-68.0,-1400.0,,,,,,0.0,,,,,,0.0
-0.7541,0.12507833545422645,-0.954,-0.735,-0.564,-15.081999999999999,0.2444,0.1517347685930947,-0.052,0.24,0.456,4.888,0.679,0.09162641540516578,0.46,0.669,0.86,13.58,,,,,,0.0,-66.6,2.2891046284519194,-70.0,-66.5,-63.0,-1332.0,-105.0,0.0,-105.0,,-105.0,-420.0,,,,,,0.0
-0.3659,0.2546766381119399,-0.61,-0.483,0.06,-7.318,-0.3822,0.15180368901973365,-0.562,-0.42300000000000004,0.012,-7.644,0.6077,0.23559734718370665,-0.128,0.666,0.92,12.154,,,,,,0.0,-63.8,4.354308211415448,-71.0,-63.0,-59.0,-1276.0,,,,,,0.0,,,,,,0.0
0.9478000000000002,0.2971127058878499,0.19,0.974,1.534,18.956000000000003,-0.8271999999999998,0.4364022914696943,-1.706,-0.753,-0.194,-16.543999999999997,0.06749999999999999,0.22255145472451981,-0.404,0.15,0.36,1.3499999999999999,,,,,,0.0,-70.5,3.263433774416144,-76.0,-69.0,-66.0,-1410.0,,,,,,0.0,,,,,,0.0
0.8936999999999999,0.09656971574981467,0.668,0.9299999999999999,1.008,17.874,-0.37100000000000005,0.12270370817542557,-0.626,-0.377,-0.168,-7.420000000000001,0.26849999999999996,0.06841893012902205,0.152,0.247,0.398,5.369999999999999,,,,,,0.0,-72.5,2.8372521918222215,-76.0,-72.0,-67.0,-1450.0,,,,,,0.0,,,,,,0.0
0.8328,0.0804994409918479,0.67,0.85,0.956,16.656,-0.3078,0.05768847371875945,-0.392,-0.311,-0.2,-6.156000000000001,0.167,0.08564694974136558,-0.008,0.19,0.326,3.3400000000000003,,,,,,0.0,-69.7,1.2688577540449522,-72.0,-69.5,-68.0,-1394.0,,,,,,0.0,,,,,,0.0
1.0093999999999999,0.12401951459347033,0.854,0.996,1.198,20.187999999999995,-0.3425,0.061562569796914754,-0.45,-0.349,-0.174,-6.8500000000000005,-0.0605,0.07605491437113054,-0.186,-0.053,0.044,-1.21,,,,,,0.0,-67.9,1.6401219466856725,-72.0,-68.0,-66.0,-1358.0,,,,,,0.0,,,,,,0.0
0.9109,0.020875583824171227,0.876,0.906,0.95,18.218,-0.3587,0.014863041411501212,-0.386,-0.359,-0.33,-7.174,-0.028900000000000002,0.03536368193500219,-0.084,-0.025,0.024,-0.5780000000000001,,,,,,0.0,-70.6,0.6633249580710799,-72.0,-70.5,-70.0,-1412.0,,,,,,0.0,,,,,,0.0
0.9118999999999999,0.013198105924715106,0.886,0.912,0.94,18.238,-0.3335,0.08394253987103321,-0.384,-0.354,0.012,-6.670000000000001,-0.038400000000000004,0.03152522799283139,-0.158,-0.036,-0.004,-0.7680000000000001,,,,,,0.0,-70.5,1.3601470508735443,-72.0,-71.0,-67.0,-1410.0,,,,,,0.0,,,,,,0.0
1.0233999999999999,0.06699880595950947,0.892,1.017,1.166,20.467999999999996,-0.05389999999999999,0.10551488046716444,-0.282,-0.05,0.08,-1.0779999999999998,-0.1458,0.12255268254917964,-0.366,-0.11699999999999999,0.118,-2.9160000000000004,,,,,,0.0,-66.7,1.4177446878757824,-69.0,-66.5,-64.0,-1334.0,,,,,,0.0,,,,,,0.0
0.8946000000000002,0.06277611010567634,0.776,0.895,0.998,17.892000000000003,-0.1662,0.16311088253087222,-0.392,-0.202,0.254,-3.324,0.1297,0.127554341360849,-0.04,0.101,0.514,2.5940000000000003,,,,,,0.0,-73.3,4.243819034784589,-79.0,-74.0,-64.0,-1466.0,,,,,,0.0,,,,,,0.0
0.9176,0.01387948125831798,0.88,0.921,0.94,18.352,-0.3223,0.03528895011189763,-0.36,-0.325,-0.232,-6.446,0.25070000000000003,0.03203295178406136,0.198,0.243,0.332,5.014,,,,,,0.0,-72.7,0.7810249675906654,-74.0,-72.5,-72.0,-1454.0,,,,,,0.0,,,,,,0.0
0.9101000000000001,0.01739511425659517,0.864,0.911,0.934,18.202,-0.32219999999999993,0.012130952147296613,-0.342,-0.323,-0.286,-6.443999999999999,0.24900000000000003,0.017927632303235137,0.21,0.25,0.288,4.98,,,,,,0.0,-73.0,0.6324555320336759,-74.0,-73.0,-72.0,-1460.0,,,,,,0.0,,,,,,0.0
0.9153,0.05042727436616022,0.784,0.923,1.0,18.306,-0.333,0.051363411101678205,-0.462,-0.32,-0.276,-6.66,0.2639,0.022329128957485112,0.238,0.258,0.32,5.2780000000000005,,,,,,0.0,-72.2,1.7204650534085253,-74.0,-73.0,-68.0,-1444.0,,,,,,0.0,,,,,,0.0
0.8548000000000002,0.060144492682206584,0.734,0.863,0.94,17.096000000000004,-0.45020000000000004,0.0602292287847022,-0.572,-0.429,-0.368,-9.004000000000001,0.22960000000000003,0.04428363128741815,0.156,0.24,0.29,4.5920000000000005,,,,,,0.0,-69.0,3.1622776601683795,-71.0,-70.0,-60.0,-1380.0,,,,,,0.0,,,,,,0.0
0.7989999999999998,0.2305259204514755,0.414,0.76,1.504,15.979999999999997,-0.5038,0.16844690558155112,-0.904,-0.434,-0.33,-10.076,0.3614,0.3957979787719993,-0.098,0.281,1.68,7.228,,,,,,0.0,-65.2,3.57211421989835,-69.0,-66.0,-60.0,-1304.0,,,,,,0.0,,,,,,0.0
0.566,0.16280049139974978,0.214,0.5820000000000001,0.834,11.319999999999999,-0.5052000000000001,0.13911779181686287,-0.72,-0.535,-0.192,-10.104000000000001,0.7554,0.0926371415793903,0.592,0.746,0.928,15.107999999999999,,,,,,0.0,-68.1,3.0479501308256336,-74.0,-66.5,-66.0,-1362.0,,,,,,0.0,,,,,,0.0
0.7153,0.2818597346198992,0.184,0.836,1.004,14.306000000000001,-0.5077999999999999,0.22027155967123851,-0.86,-0.405,-0.24,-10.155999999999999,0.4187,0.10507954130086408,0.248,0.41200000000000003,0.578,8.374,,,,,,0.0,-68.5,1.857417562100671,-72.0,-68.0,-66.0,-1370.0,,,,,,0.0,,,,,,0.0
0.5892999999999999,0.2816418115266269,0.226,0.527,1.022,11.786,-0.7032999999999999,0.21718404637541866,-1.096,-0.699,-0.41,-14.065999999999999,0.3057000000000001,0.06713948167807077,0.192,0.315,0.514,6.114000000000002,,,,,,0.0,-66.2,1.9390719429665317,-69.0,-66.0,-63.0,-1324.0,,,,,,0.0,,,,,,0.0
0.6352,0.23478534877628118,0.354,0.605,1.222,12.703999999999999,-0.5229,0.17506395974043315,-0.808,-0.558,-0.026,-10.458,0.7365,0.3207858319814016,0.336,0.736,1.736,14.73,,,,,,0.0,-67.6,4.651881339845203,-75.0,-68.0,-60.0,-1352.0,,,,,,0.0,,,,,,0.0
0.8415000000000001,0.11421711780639537,0.658,0.8260000000000001,0.988,16.830000000000002,-0.39899999999999997,0.1355957226464021,-0.57,-0.442,-0.18,-7.9799999999999995,0.1383,0.06982628444933899,-0.032,0.125,0.24,2.766,,,,,,0.0,-66.3,3.0675723300355937,-70.0,-66.5,-60.0,-1326.0,,,,,,0.0,,,,,,0.0
0.8981,0.0626944176143299,0.786,0.9,1.044,17.962,-0.37210000000000004,0.12792103032730778,-0.73,-0.388,-0.008,-7.442000000000001,0.21070000000000003,0.1003778361990335,0.08,0.185,0.488,4.214,,,,,,0.0,-71.7,1.268857754044952,-73.0,-71.5,-69.0,-1434.0,,,,,,0.0,,,,,,0.0
0.8941999999999999,0.010675204916066024,0.88,0.892,0.92,17.883999999999997,-0.3813,0.032559330459946495,-0.48,-0.372,-0.336,-7.6259999999999994,0.2505,0.017388214399414337,0.22,0.247,0.304,5.01,,,,,,0.0,-70.8,0.6,-72.0,-71.0,-70.0,-1416.0,,,,,,0.0,,,,,,0.0
0.9221000000000001,0.038830271696190834,0.88,0.905,0.998,18.442000000000004,-0.3266,0.06340063091168731,-0.394,-0.368,-0.226,-6.532,0.20549999999999996,0.04980712800393133,0.108,0.232,0.268,4.109999999999999,,,,,,0.0,-70.0,1.8973665961010275,-73.0,-70.0,-66.0,-1400.0,,,,,,0.0,,,,,,0.0
0.8904210526315789,0.13566146557146297,0.718,0.86,1.188,16.918,-0.3130526315789474,0.11692439018182041,-0.61,-0.272,-0.186,-5.948,0.33421052631578946,0.11506683593156605,0.018,0.39,0.456,6.35,,,,,,0.0,-72.21052631578948,4.6518694303124954,-80.0,-70.0,-66.0,-1372.0,,,,,,0.0,,,,,,0.0
0.9293000000000001,0.27997019484223673,0.342,0.871,1.662,18.586000000000002,-0.018299999999999997,0.27408777791065403,-0.426,-0.0010000000000000009,0.656,-0.36599999999999994,-0.055700000000000006,0.16387955943313978,-0.48,-0.009000000000000001,0.126,-1.114,,,,,,0.0,-71.35,3.8765319552404054,-75.0,-73.0,-65.0,-1427.0,,,,,,0.0,,,,,,0.0
0.5642,0.39358805876194974,-0.302,0.62,1.368,11.284,-0.1561,0.23441030267460514,-0.6,-0.049,0.184,-3.122,0.7174,0.2966048549838657,-0.074,0.754,1.426,14.348,,,,,,0.0,-71.15,3.1348843678834473,-75.0,-71.0,-66.0,-1423.0,,,,,,0.0,,,,,,0.0
0.3096,0.029172589874743724,0.264,0.304,0.416,6.192,-0.15780000000000002,0.0911414285602327,-0.244,-0.184,0.16,-3.1560000000000006,1.0181,0.0749332369513022,0.934,0.996,1.318,20.362000000000002,,,,,,0.0,-72.3,0.714142842854285,-74.0,-72.0,-72.0,-1446.0,,,,,,0.0,,,,,,0.0
0.2265,0.11763481627477469,-0.072,0.289,0.306,4.53,-0.3347,0.4253334103970672,-1.378,-0.177,0.192,-6.694,0.9261999999999999,0.3040413787628256,0.206,0.996,1.51,18.523999999999997,,,,,,0.0,-73.7,2.215851980616034,-78.0,-73.0,-72.0,-1474.0,,,,,,0.0,,,,,,0.0
0.09980000000000001,0.19564345120652518,-0.194,0.099,0.518,1.9960000000000002,-0.33320000000000005,0.271834067033549,-0.898,-0.383,0.248,-6.664000000000001,0.8874000000000001,0.2888391247736359,0.22,0.868,1.43,17.748,,,,,,0.0,-74.0,4.47213595499958,-82.0,-74.0,-66.0,-1480.0,-105.0,0.0,-105.0,,-105.0,-105.0,,,,,,0.0
-0.6136,0.2897140659339826,-1.256,-0.652,-0.148,-12.272,0.5642,0.14405262927138818,0.254,0.617,0.804,11.284,0.40730000000000005,0.20130700434907872,0.094,0.374,0.88,8.146,,,,,,0.0,-72.6,4.454211490264018,-82.0,-72.0,-66.0,-1452.0,-98.33333333333333,3.515047020390418,-105.0,,-95.0,-1475.0,,,,,,0.0
-0.589375,0.058334032733902426,-0.67,-0.586,-0.404,-9.43,0.5455000000000001,0.07348639329835151,0.472,0.536,0.796,8.728000000000002,0.6072500000000001,0.08295443026143932,0.444,0.62,0.792,9.716000000000001,,,,,,0.0,-78.08333333333333,2.32588095615881,-82.0,,-75.0,-937.0,-95.5,0.5,-96.0,,-95.0,-764.0,,,,,,0.0
-0.5342,0.03787822593522562,-0.578,-0.543,-0.464,-10.684,0.5982,0.047794978815771,0.55,0.579,0.7,11.963999999999999,0.6053,0.034130777899133796,0.56,0.606,0.688,12.106,,,,,,0.0,-75.5,2.3979157616563596,-81.0,-75.0,-73.0,-1510.0,,,,,,0.0,,,,,,0.0
-0.4899,0.04481283298342117,-0.648,-0.481,-0.43,-9.798,0.5862999999999998,0.08674854465638025,0.466,0.555,0.752,11.725999999999997,0.6666,0.08459101607144813,0.542,0.667,0.828,13.331999999999999,,,,,,0.0,-75.35,3.365635155509284,-81.0,-76.0,-72.0,-1507.0,-94.0,0.0,-94.0,,-94.0,-94.0,,,,,,0.0
-0.42029999999999995,0.32918522141797313,-1.274,-0.429,0.096,-8.405999999999999,0.2485,0.37149959623127454,-0.448,0.329,0.864,4.97,0.8360999999999998,0.18784192822690038,0.504,0.863,1.15,16.721999999999998,-103.0,1.0,-104.0,,-102.0,-824.0,-74.35,2.5154522456210535,-79.0,-74.0,-72.0,-1487.0,-98.0,3.4641016151377544,-103.0,,-94.0,-1862.0,,,,,,0.0
-0.5942000000000001,0.09786092172057241,-0.8,-0.575,-0.45,-11.884,0.42759999999999987,0.1494116461324217,0.048,0.426,0.654,8.551999999999998,0.7095,0.12043068545848272,0.462,0.7050000000000001,0.91,14.19,,,,,,0.0,-77.45,4.543952024394624,-86.0,-75.0,-74.0,-1549.0,,,,,,0.0,,,,,,0.0
-0.5194,0.039598484819497834,-0.61,-0.51,-0.464,-10.388,0.47380000000000005,0.04269379345993982,0.402,0.48,0.546,9.476,0.7368,0.09720164607659687,0.496,0.736,0.872,14.736,,,,,,0.0,-77.8,1.077032961426901,-80.0,-78.0,-76.0,-1556.0,,,,,,0.0,,,,,,0.0
-0.49000000000000005,0.009879271228182784,-0.51,-0.489,-0.474,-9.8,0.44980000000000003,0.01879255171603899,0.414,0.447,0.482,8.996,0.7866,0.02253974267821174,0.752,0.789,0.83,15.732,,,,,,0.0,-77.15,1.3143439428094914,-79.0,-76.0,-76.0,-1543.0,,,,,,0.0,,,,,,0.0
-0.5132,0.007934733769950957,-0.528,-0.514,-0.498,-10.264,0.4629999999999999,0.009370165420097968,0.444,0.462,0.482,9.259999999999998,0.7561000000000001,0.013776429145464376,0.736,0.752,0.79,15.122000000000002,,,,,,0.0,-79.0,0.0,-79.0,-79.0,-79.0,-1580.0,,,,,,0.0,,,,,,0.0
-0.41900000000000004,0.1500993004647257,-0.618,-0.515,-0.072,-8.38,0.24050000000000002,0.301644078343998,-0.288,0.293,0.728,4.8100000000000005,0.8528,0.20115506456462887,0.518,0.764,1.234,17.056,,,,,,0.0,-75.4,4.758150901348128,-83.0,-75.0,-70.0,-1508.0,,,,,,0.0,,,,,,0.0
-0.11299999999999999,0.24523825150249298,-0.336,-0.232,0.392,-2.26,0.071,0.30815677828014754,-0.464,0.059,0.862,1.42,1.0358,0.15131939730252694,0.668,1.028,1.352,20.716,-97.0,0.0,-97.0,,-97.0,-97.0,-70.25,1.4448183276799889,-72.0,-71.0,-68.0,-1405.0,,,,,,0.0,,,,,,0.0
-0.4091,0.35621144001842503,-0.804,-0.522,0.406,-8.182,0.6900999999999999,0.0607403490276439,0.568,0.694,0.79,13.802,0.26449999999999996,0.18846312636693685,0.024,0.20600000000000002,0.614,5.289999999999999,-97.0,0.0,-97.0,,-97.0,-291.0,-73.05,4.398579316097415,-80.0,-73.0,-68.0,-1461.0,-98.53846153846153,3.2490326279912116,-103.0,,-93.0,-1281.0,,,,,,0.0
-0.39670000000000005,0.07263408290878325,-0.616,-0.38,-0.276,-7.934000000000001,0.8735000000000002,0.11910310659256543,0.642,0.87,1.206,17.470000000000002,0.2672,0.07953213187133865,0.108,0.289,0.376,5.343999999999999,,,,,,0.0,-72.1,0.9949874371066199,-73.0,-73.0,-71.0,-1442.0,-97.53333333333333,2.729265265394496,-101.0,,-93.0,-1463.0,,,,,,0.0
-0.3732000000000001,0.004995998398718723,-0.386,-0.371,-0.368,-7.464000000000001,0.8656,0.024597560854686392,0.798,0.871,0.902,17.312,0.24970000000000003,0.032026707604747635,0.206,0.244,0.318,4.994000000000001,,,,,,0.0,-71.2,0.39999999999999997,-72.0,-71.0,-71.0,-1424.0,-99.0,0.0,-99.0,,-99.0,-396.0,,,,,,0.0
-0.3687,0.006173329733620266,-0.382,-0.37,-0.354,-7.3740000000000006,0.8776999999999999,0.006396092557178959,0.864,0.88,0.888,17.554,0.21190000000000003,0.010343597053249902,0.198,0.208,0.238,4.238,,,,,,0.0,-70.55,0.4974937185533099,-71.0,-71.0,-70.0,-1411.0,-95.53846153846153,3.0537589601968014,-98.0,,-91.0,-1242.0,,,,,,0.0
-0.376,0.09079427294714133,-0.536,-0.382,-0.098,-7.5200000000000005,0.9285,0.1266568197926981,0.818,0.883,1.298,18.57,0.07909999999999998,0.26105055066021216,-0.8,0.18,0.288,1.5819999999999996,,,,,,0.0,-74.15,3.6369630187836663,-81.0,-72.0,-70.0,-1483.0,-98.1875,2.297246993686138,-102.0,,-96.0,-1571.0,,,,,,0.0
0.3599,0.33942449823193377,-0.136,0.394,0.946,7.1979999999999995,-0.4185,0.8114776337028643,-1.53,-0.589,1.33,-8.37,0.7078,0.6889647015631497,-1.128,0.747,1.798,14.156,,,,,,0.0,-72.45,4.4212554778026565,-81.0,-72.0,-66.0,-1449.0,-100.42857142857143,2.9692299558323607,-103.0,,-97.0,-703.0,,,,,,0.0
0.144,0.32176264543914973,-0.394,0.16299999999999998,0.716,2.88,-0.37300000000000005,0.22877805838847395,-0.91,-0.332,0.066,-7.460000000000001,0.9320999999999999,0.20224883188785045,0.552,0.98,1.4,18.642,,,,,,0.0,-72.75,3.884263121880391,-77.0,-74.0,-66.0,-1455.0,-100.0,0.0,-100.0,,-100.0,-400.0,,,,,,0.0
0.11909999999999998,0.098967620967668,-0.052,0.126,0.272,2.3819999999999997,-0.4431,0.10204993875549362,-0.592,-0.421,-0.2,-8.862,0.9549,0.055398465682724475,0.864,0.951,1.08,19.098,,,,,,0.0,-69.35,2.5548972582082436,-74.0,-68.0,-67.0,-1387.0,,,,,,0.0,,,,,,0.0
-0.0414,0.08687255032517464,-0.25,-0.02,0.046,-0.828,-0.5671,0.11884691834456626,-0.872,-0.53,-0.366,-11.342,0.8959999999999999,0.0681879754795521,0.678,0.895,1.048,17.919999999999998,-104.0,0.0,-104.0,,-104.0,-104.0,-71.5,1.7175564037317668,-73.0,-72.0,-66.0,-1430.0,,,,,,0.0,,,,,,0.0
0.08160000000000002,0.14101999858176145,-0.232,0.095,0.332,1.6320000000000003,-0.7931,0.29660443354744376,-1.812,-0.749,-0.4,-15.862,0.6012000000000001,0.2743431427974827,0.022,0.616,1.128,12.024000000000001,-104.0,0.0,-104.0,,-104.0,-312.0,-64.85,2.3081377775167584,-69.0,-64.0,-63.0,-1297.0,,,,,,0.0,,,,,,0.0
0.1125,0.14420800948629725,-0.176,0.087,0.492,2.25,-0.6305,0.1979796706735315,-0.95,-0.646,-0.284,-12.61,0.791,0.173814268689311,0.496,0.74,1.24,15.82,,,,,,0.0,-67.85,3.2446109165815242,-72.0,-67.0,-63.0,-1357.0,-94.0,0.0,-94.0,,-94.0,-94.0,,,,,,0.0
0.0346,0.1872731694610843,-0.168,-0.023,0.338,0.692,-0.39,0.1010564198851315,-0.65,-0.371,-0.234,-7.8,0.9273999999999998,0.07702752754697506,0.76,0.908,1.118,18.547999999999995,-103.0,0.0,-103.0,,-103.0,-412.0,-71.55,2.9744747435471695,-75.0,-72.0,-67.0,-1431.0,-95.71428571428571,1.4846149779161806,-97.0,,-94.0,-670.0,,,,,,0.0
0.08919999999999999,0.29882998510858977,-0.544,0.125,0.716,1.7839999999999998,-0.49639999999999995,0.5491329893568588,-1.46,-0.481,0.71,-9.927999999999999,0.9635,0.2595826457989825,0.608,0.956,1.666,19.27,,,,,,0.0,-71.0,4.516635916254486,-78.0,-71.0,-65.0,-1420.0,,,,,,0.0,,,,,,0.0
-0.5219,0.051367207438209044,-0.59,-0.527,-0.41,-10.438,0.14640000000000003,0.29895257148919124,-0.772,0.231,0.56,2.9280000000000004,0.6884,0.14626223025784885,0.412,0.766,0.864,13.768,,,,,,0.0,-73.0,2.32379000772445,-76.0,-74.0,-70.0,-1460.0,,,,,,0.0,,,,,,0.0
0.7038000000000001,0.554073244255667,-0.404,0.9319999999999999,1.472,14.076000000000002,-0.3807,0.44685938504187195,-1.192,-0.444,0.364,-7.614,0.49300000000000005,0.15020053262222474,0.296,0.432,0.774,9.860000000000001,,,,,,0.0,-71.0,3.63318042491699,-78.0,-69.0,-68.0,-1420.0,,,,,,0.0,,,,,,0.0
0.9853,0.15484479326086492,0.754,1.0190000000000001,1.262,19.706,-0.3891,0.14042432125525833,-0.64,-0.33599999999999997,-0.196,-7.782,0.20919999999999997,0.07112636641921194,0.12,0.185,0.336,4.183999999999999,,,,,,0.0,-71.4,4.431703961232068,-77.0,-71.0,-66.0,-1428.0,,,,,,0.0,,,,,,0.0
0.9289999999999999,0.10105543033404984,0.748,0.902,1.144,18.58,-0.23620000000000002,0.16137769362585402,-0.648,-0.168,-0.036,-4.724,0.28700000000000003,0.11536810651128847,0.048,0.315,0.448,5.74,,,,,,0.0,-74.8,5.706137047074843,-82.0,-76.0,-67.0,-1496.0,,,,,,0.0,,,,,,0.0
0.8056000000000001,0.04403907355973783,0.744,0.79,0.914,16.112000000000002,-0.46769999999999995,0.15188189490521906,-0.682,-0.488,-0.152,-9.354,-0.21480000000000005,0.1678718558901402,-0.544,-0.196,0.06,-4.296000000000001,-103.0,0.0,-103.0,,-103.0,-412.0,-71.8,3.1874754901018454,-75.0,-74.0,-67.0,-1436.0,,,,,,0.0,,,,,,0.0
0.8549,0.10087313814886499,0.638,0.864,1.062,17.098,-0.45519999999999994,0.16455199786085858,-0.76,-0.478,-0.014,-9.104,-0.1282,0.12875232036744036,-0.324,-0.154,0.11,-2.564,,,,,,0.0,-69.45,1.2835497652993437,-71.0,-70.0,-67.0,-1389.0,,,,,,0.0,,,,,,0.0
0.7795,0.17088812129577644,0.432,0.812,1.038,15.59,-0.33209999999999995,0.2292347922982024,-0.856,-0.351,0.2,-6.641999999999999,-0.2304,0.15557711914031572,-0.464,-0.266,0.168,-4.608,,,,,,0.0,-71.65,2.9878922336657325,-76.0,-70.0,-68.0,-1433.0,,,,,,0.0,,,,,,0.0
0.9938999999999998,0.23080335786118886,0.688,0.972,1.458,19.877999999999997,-0.24659999999999999,0.11517482363780723,-0.404,-0.281,0.014,-4.9319999999999995,-0.18209999999999998,0.19742084489739176,-0.654,-0.08299999999999999,-0.014,-3.642,,,,,,0.0,-70.75,1.479019945774904,-73.0,-71.0,-68.0,-1415.0,,,,,,0.0,,,,,,0.0
0.9324000000000001,0.04697062912076013,0.828,0.926,1.008,18.648000000000003,-0.36160000000000003,0.052973955865123004,-0.48,-0.354,-0.27,-7.232,-0.017300000000000003,0.04009625917713522,-0.088,-0.022,0.048,-0.34600000000000003,,,,,,0.0,-67.35,2.329699551444349,-70.0,-68.0,-63.0,-1347.0,,,,,,0.0,,,,,,0.0
0.9451,0.03532407111305263,0.886,0.947,1.016,18.902,-0.2158,0.10414393885387666,-0.362,-0.196,-0.062,-4.316,-0.07289999999999999,0.039066481797059745,-0.138,-0.07,-0.016,-1.4579999999999997,,,,,,0.0,-70.3,2.0760539492026697,-73.0,-71.0,-67.0,-1406.0,,,,,,0.0,,,,,,0.0
0.9723,0.021450174824462407,0.944,0.97,1.038,19.446,-0.11510000000000001,0.04162439188744984,-0.206,-0.10600000000000001,-0.058,-2.302,-0.10160000000000002,0.03770198933743417,-0.184,-0.115,-0.016,-2.0320000000000005,,,,,,0.0,-69.6,2.2449944320643644,-73.0,-70.0,-66.0,-1392.0,,,,,,0.0,,,,,,0.0
0.9389000000000001,0.1559967627869245,0.636,0.981,1.142,18.778000000000002,-0.195,0.10479790074233358,-0.452,-0.188,-0.032,-3.9000000000000004,0.0626,0.1333748102154226,-0.08,0.07,0.52,1.252,,,,,,0.0,-69.2,2.8913664589601917,-73.0,-68.0,-66.0,-1384.0,,,,,,0.0,,,,,,0.0
0.9104000000000003,0.045341371836326264,0.846,0.898,1.03,18.208000000000006,-0.3325,0.08997527438135433,-0.57,-0.33,-0.146,-6.65,0.2869,0.05364876513024321,0.21,0.291,0.47,5.7379999999999995,,,,,,0.0,-67.1,1.0908712114635715,-69.0,-67.0,-66.0,-1342.0,,,,,,0.0,,,,,,0.0
0.9092,0.020565991344936422,0.864,0.906,0.952,18.184,-0.3409,0.04126729940279592,-0.422,-0.332,-0.282,-6.818,0.2712,0.036706402711243716,0.216,0.269,0.322,5.4239999999999995,,,,,,0.0,-66.2,0.7483314773547882,-67.0,-66.0,-65.0,-1324.0,,,,,,0.0,,,,,,0.0
0.8754000000000002,0.04625624282191541,0.78,0.893,0.942,17.508000000000003,-0.4572,0.19545679829568477,-0.762,-0.369,-0.168,-9.144,0.2166,0.07626821094007646,0.07,0.248,0.306,4.332,,,,,,0.0,-66.15,1.6515144564913744,-68.0,-67.0,-62.0,-1323.0,,,,,,0.0,,,,,,0.0
0.763,0.10098811811297406,0.648,0.727,0.978,15.26,-0.4861,0.10685031586289298,-0.692,-0.49,-0.29,-9.722,0.20579999999999998,0.15851422649087368,-0.114,0.189,0.466,4.116,,,,,,0.0,-63.15,3.118894034750139,-69.0,-62.0,-60.0,-1263.0,,,,,,0.0,,,,,,0.0
0.6480000000000001,0.20769882041070914,0.252,0.589,1.126,12.960000000000003,-0.5898999999999999,0.1559287978533792,-1.05,-0.58,-0.246,-11.797999999999998,0.6416999999999999,0.2697208000877945,0.188,0.66,1.232,12.833999999999998,,,,,,0.0,-66.2,1.5362291495737215,-69.0,-66.0,-64.0,-1324.0,,,,,,0.0,,,,,,0.0
0.35019999999999996,0.13435162820003338,0.094,0.32499999999999996,0.55,7.004,-0.5048000000000001,0.18952509068722273,-0.76,-0.511,-0.096,-10.096000000000002,0.7746999999999999,0.15252314578450052,0.51,0.778,1.022,15.493999999999998,,,,,,0.0,-65.5,1.9364916731037085,-69.0,-66.0,-63.0,-1310.0,,,,,,0.0,,,,,,0.0
0.7175,0.10442772620334122,0.574,0.675,0.968,14.350000000000001,-0.6446,0.15745107176516773,-1.01,-0.64,-0.416,-12.892,0.33140000000000003,0.12580953858909108,0.102,0.314,0.672,6.628,,,,,,0.0,-66.8,1.1661903789690602,-68.0,-67.0,-65.0,-1336.0,,,,,,0.0,,,,,,0.0
0.7179,0.06158400766432794,0.678,0.696,0.926,14.357999999999999,-0.6683999999999999,0.04251870176757517,-0.804,-0.66,-0.562,-13.367999999999999,0.3187,0.041149848116366114,0.294,0.305,0.478,6.374,,,,,,0.0,-67.1,0.6244997998398398,-68.0,-67.0,-65.0,-1342.0,,,,,,0.0,,,,,,0.0
0.3047000000000001,0.2616893387205524,-0.218,0.347,0.726,6.094000000000001,-0.7098,0.225117658125701,-1.102,-0.722,-0.24,-14.196,0.5824,0.14943841540915778,0.428,0.544,1.032,11.648,,,,,,0.0,-69.0,2.32379000772445,-72.0,-70.0,-65.0,-1380.0,,,,,,0.0,,,,,,0.0
0.5210999999999999,0.2557455571461604,0.112,0.481,1.132,10.421999999999999,-0.5948999999999999,0.16577994450475608,-0.922,-0.599,-0.142,-11.897999999999998,0.7407999999999999,0.22591538238907063,0.336,0.773,1.222,14.815999999999999,,,,,,0.0,-64.7,2.471841418861655,-71.0,-64.0,-63.0,-1294.0,,,,,,0.0,,,,,,0.0
0.7041052631578948,0.14936141076238785,0.526,0.652,1.074,13.378000000000002,-0.44842105263157894,0.22080482350506406,-1.202,-0.452,-0.154,-8.52,0.27568421052631575,0.16813436125582137,-0.04,0.334,0.464,5.2379999999999995,,,,,,0.0,-66.15789473684211,2.8885100492657356,-71.0,-64.0,-64.0,-1257.0,,,,,,0.0,,,,,,0.0
0.6191000000000002,0.09623195934823316,0.5,0.612,0.806,12.382000000000003,-0.7195,0.1578896766733025,-1.184,-0.708,-0.446,-14.39,0.2633,0.05988413813356589,0.16,0.27,0.432,5.265999999999999,,,,,,0.0,-60.0,1.4142135623730951,-62.0,-60.0,-58.0,-1200.0,,,,,,0.0,,,,,,0.0
0.6977,0.01630061348538758,0.668,0.697,0.728,13.953999999999999,-0.6748000000000001,0.01464786673888042,-0.714,-0.672,-0.656,-13.496000000000002,0.25060000000000004,0.00982038695775274,0.23,0.252,0.272,5.0120000000000005,,,,,,0.0,-58.2,0.39999999999999997,-59.0,-58.0,-58.0,-1164.0,,,,,,0.0,,,,,,0.0
0.8474,0.12836993417463455,0.696,0.826,1.062,16.948,-0.49619999999999986,0.14450176469510678,-0.68,-0.399,-0.346,-9.923999999999998,0.2,0.05931610236689528,0.08,0.224,0.278,4.0,,,,,,0.0,-63.2,4.791659420284375,-70.0,-63.0,-58.0,-1264.0,,,,,,0.0,,,,,,0.0
0.8827999999999999,0.1322049923414392,0.726,0.842,1.176,17.656,-0.24700000000000003,0.18657598988079896,-0.496,-0.278,0.216,-4.94,0.32239999999999996,0.17321732015015126,0.02,0.312,0.574,6.4479999999999995,,,,,,0.0,-69.0,1.4142135623730951,-71.0,-69.0,-67.0,-1380.0,,,,,,0.0,,,,,,0.0
1.0184000000000002,0.2588981266830643,0.684,0.952,1.648,20.368000000000002,-0.1331,0.21745388016772657,-0.51,-0.21200000000000002,0.392,-2.662,0.2133,0.17883319043175402,-0.2,0.268,0.448,4.266,,,,,,0.0,-73.8,5.15363949069005,-83.0,-74.0,-68.0,-1476.0,,,,,,0.0,,,,,,0.0
0.11010000000000002,0.20185289197829198,-0.35,0.129,0.676,2.2020000000000004,-0.7392000000000001,0.14641502655123892,-0.904,-0.786,-0.4,-14.784,0.6165,0.19982780086864793,0.24,0.659,0.92,12.33,,,,,,0.0,-73.4,2.576819745345025,-78.0,-73.0,-70.0,-1468.0,,,,,,0.0,,,,,,0.0
0.053625,0.0057540746432419515,0.046,0.054,0.064,0.858,-0.7141249999999999,0.01241911329362931,-0.736,-0.712,-0.69,-11.425999999999998,0.745,0.013114877048604014,0.72,0.748,0.766,11.92,,,,,,0.0,-72.5,0.5,-73.0,-72.5,-72.0,-1160.0,,,,,,0.0,,,,,,0.0
-0.17609999999999998,0.3741633199553372,-1.096,-0.1,0.312,-3.522,-0.7111999999999999,0.21986213862327458,-1.296,-0.713,-0.32,-14.223999999999998,0.6218,0.17899262554641743,0.204,0.6599999999999999,0.832,12.436,,,,,,0.0,-74.6,2.4166091947189146,-79.0,-74.0,-72.0,-1492.0,-104.0,0.0,-104.0,,-104.0,-416.0,,,,,,0.0
0.08370000000000002,0.33880394035489025,-0.344,0.049,0.668,1.6740000000000004,-0.7622000000000001,0.17175668837049698,-1.12,-0.673,-0.574,-15.244000000000002,0.7518,0.14205196232365114,0.504,0.707,1.008,15.036000000000001,,,,,,0.0,-70.6,1.4966629547095764,-72.0,-71.0,-68.0,-1412.0,-102.0,0.0,-102.0,,-102.0,-408.0,,,,,,0.0
-0.2826,0.15724134316394017,-0.704,-0.26,-0.066,-5.652,0.3587,0.40706867970896504,-0.77,0.445,0.774,7.174,0.4409000000000002,0.6808463776800168,-0.552,0.6100000000000001,1.324,8.818000000000003,-90.5,0.5,-91.0,,-90.0,-724.0,-69.4,2.7276363393971708,-73.0,-69.0,-66.0,-1388.0,-98.5,2.5,-101.0,,-96.0,-788.0,,,,,,0.0
-0.6109,0.27821967939022574,-1.346,-0.601,-0.224,-12.218,0.7643,0.24281044046745598,0.44,0.747,1.432,15.286,0.049400000000000006,0.13889578827307905,-0.174,0.065,0.396,0.9880000000000001,-92.0,0.0,-92.0,,-92.0,-368.0,-74.2,4.166533331199933,-77.0,-76.0,-66.0,-1484.0,-92.4,3.261901286060018,-98.0,-92.0,-88.0,-1848.0,,,,,,0.0
-0.3543,0.010104949282406123,-0.378,-0.352,-0.336,-7.086,0.8781999999999999,0.033243946817428295,0.762,0.888,0.91,17.563999999999997,0.1257,0.046040308426421296,0.078,0.11,0.272,2.5140000000000002,,,,,,0.0,-77.25,1.0897247358851685,-79.0,,-76.0,-1236.0,-96.6,3.8781438859330635,-101.0,-98.0,-92.0,-1932.0,,,,,,0.0
-0.3466,0.005765414122159817,-0.36,-0.346,-0.338,-6.932,0.8944999999999999,0.00472757866142913,0.886,0.895,0.902,17.889999999999997,0.0809,0.007835177087979567,0.07,0.078,0.092,1.618,-98.0,0.0,-98.0,,-98.0,-392.0,-79.0,0.0,-79.0,,-79.0,-632.0,-93.75,3.6314597615834874,-100.0,,-91.0,-1500.0,,,,,,0.0
-0.25833333333333336,0.1676898592309293,-0.442,-0.349,0.044,-3.1,0.8821666666666665,0.062050830417936825,0.806,0.879,0.992,10.585999999999999,0.021,0.1631737315460631,-0.336,0.08199999999999999,0.262,0.252,-100.0,2.0,-102.0,,-98.0,-800.0,-86.0,0.0,-86.0,,-86.0,-344.0,-99.33333333333333,0.4714045207910317,-100.0,-99.0,-99.0,-1192.0,,,,,,0.0
-0.5984999999999999,0.04940799530440393,-0.686,-0.61,-0.5,-11.969999999999999,0.7213999999999999,0.10700299061241234,0.578,0.705,0.924,14.427999999999999,0.2567,0.116300085984491,-0.016,0.279,0.466,5.1339999999999995,,,,,,0.0,-75.0,2.1908902300206643,-79.0,-75.0,-73.0,-1500.0,-93.2,1.4696938456699067,-95.0,-92.0,-92.0,-1864.0,,,,,,0.0
-0.5503,0.03272476126727283,-0.616,-0.551,-0.488,-11.006,0.7369,0.15285087503838507,0.44,0.715,1.078,14.738,0.30989999999999995,0.10371783838858194,0.068,0.362,0.404,6.1979999999999995,,,,,,0.0,-69.6,0.7999999999999999,-70.0,-70.0,-68.0,-1392.0,-89.8,0.9797958971132713,-91.0,-90.0,-88.0,-1796.0,,,,,,0.0
-0.543375,0.006152997237119489,-0.552,-0.545,-0.528,-8.694,0.72275,0.014471955638406298,0.684,0.722,0.742,11.564,0.386125,0.011607513730338647,0.358,0.387,0.4,6.178,,,,,,0.0,-70.5,0.5,-71.0,-70.5,-70.0,-1128.0,-90.0,0.7071067811865476,-91.0,-90.0,-89.0,-1440.0,,,,,,0.0
-0.5266,0.00675573830162182,-0.538,-0.526,-0.514,-10.532,0.7405999999999999,0.010121264743104005,0.718,0.742,0.76,14.812,0.37889999999999996,0.009087904048789256,0.364,0.382,0.396,7.577999999999999,,,,,,0.0,-70.0,0.0,-70.0,-70.0,-70.0,-1400.0,-90.2,0.4,-91.0,-90.0,-90.0,-1804.0,,,,,,0.0
-0.5347,0.006140846847137621,-0.544,-0.536,-0.52,-10.693999999999999,0.7314999999999999,0.00935681569766126,0.718,0.73,0.754,14.629999999999999,0.38669999999999993,0.015261389189716652,0.352,0.391,0.408,7.733999999999999,,,,,,0.0,-71.6,0.8,-72.0,-72.0,-70.0,-1432.0,-91.2,0.9797958971132714,-92.0,-92.0,-90.0,-1824.0,,,,,,0.0
-0.49670000000000003,0.055285712440014755,-0.552,-0.521,-0.376,-9.934000000000001,0.7772,0.07941637110822931,0.68,0.737,0.96,15.544,0.268,0.12117260416447276,0.044,0.30200000000000005,0.396,5.36,-97.0,7.0,-104.0,,-90.0,-776.0,-71.2,2.5612496949731396,-76.0,-71.0,-69.0,-1424.0,-90.6,1.4966629547095764,-93.0,-91.0,-89.0,-1812.0,,,,,,0.0
-0.39080000000000004,0.03121153632873588,-0.478,-0.383,-0.354,-7.816000000000001,0.8757000000000001,0.035795390764733974,0.828,0.874,0.936,17.514000000000003,0.015399999999999997,0.035474497882281575,-0.042,0.011,0.076,0.30799999999999994,-90.4,1.7435595774162693,-93.0,-89.0,-89.0,-1808.0,-74.8,1.4696938456699067,-76.0,-75.0,-72.0,-1496.0,-90.8,1.3266499161421597,-93.0,-91.0,-89.0,-1816.0,,,,,,0.0
-0.41530000000000006,0.025109958183955627,-0.466,-0.416,-0.364,-8.306000000000001,0.8223,0.09778604194873622,0.558,0.866,0.914,16.446,0.20469999999999997,0.24463791611277266,-0.058,0.051000000000000004,0.584,4.093999999999999,-89.0,0.0,-89.0,,-89.0,-712.0,-75.4,2.0591260281974,-79.0,-75.0,-73.0,-1508.0,-93.4,1.624807680927192,-95.0,-94.0,-91.0,-1868.0,,,,,,0.0
-0.41130000000000005,0.04640808119282675,-0.544,-0.41,-0.336,-8.226,0.6948000000000001,0.11259555941510305,0.438,0.675,0.94,13.896,0.5547,0.15748685659444728,0.016,0.593,0.828,11.094,,,,,,0.0,-73.8,2.039607805437114,-76.0,-74.0,-70.0,-1476.0,-94.0,0.8944271909999159,-95.0,-94.0,-93.0,-1880.0,,,,,,0.0
-0.4333,0.023411749187106895,-0.474,-0.435,-0.35,-8.666,0.7558,0.029002758489495455,0.696,0.752,0.83,15.116,0.4795999999999999,0.07205997502081166,0.312,0.49,0.608,9.591999999999999,,,,,,0.0,-69.8,0.7483314773547882,-71.0,-70.0,-69.0,-1396.0,-94.8,0.7483314773547882,-96.0,-95.0,-94.0,-1896.0,,,,,,0.0
-0.43870000000000003,0.006396092557178959,-0.45,-0.436,-0.426,-8.774000000000001,0.7384000000000001,0.010613199329137289,0.72,0.736,0.76,14.768,0.49650000000000005,0.016430155203162263,0.454,0.496,0.524,9.930000000000001,,,,,,0.0,-69.4,0.4898979485566356,-70.0,-69.0,-69.0,-1388.0,-93.8,0.7483314773547882,-95.0,-94.0,-93.0,-1876.0,,,,,,0.0
-0.1755,0.34095564227623515,-0.506,-0.301,0.882,-3.51,0.6601999999999999,0.4187194287348032,-0.122,0.742,1.408,13.203999999999999,0.5544,0.523946027754768,-0.112,0.414,2.248,11.088,,,,,,0.0,-75.0,5.176871642217914,-84.0,-75.0,-68.0,-1500.0,-98.33333333333333,2.0548046676563256,-101.0,,-96.0,-1180.0,,,,,,0.0
0.5902000000000001,0.6887841171223389,-0.872,0.675,1.638,11.804,0.561,0.4103532624459077,-0.126,0.665,1.096,11.22,0.2665,0.5878312257782841,-1.096,0.41000000000000003,1.136,5.33,,,,,,0.0,-76.0,4.732863826479693,-83.0,-75.0,-69.0,-1520.0,-97.5,0.5,-98.0,,-97.0,-780.0,,,,,,0.0
0.9566000000000001,0.23791603560920396,0.236,0.956,1.326,19.132,-0.3676,0.16776006676202776,-0.644,-0.374,-0.082,-7.351999999999999,0.0937,0.33786522460886675,-0.476,0.034,0.816,1.874,,,,,,0.0,-76.0,9.186947262284681,-94.0,-73.0,-69.0,-1520.0,,,,,,0.0,,,,,,0.0
0.1024,0.18456933656488014,-0.194,0.11299999999999999,0.496,2.048,-0.7524,0.31185419670095826,-1.63,-0.814,-0.114,-15.048,0.6015999999999999,0.2045420250217544,0.35,0.548,1.202,12.031999999999998,,,,,,0.0,-69.0,3.03315017762062,-73.0,-70.0,-65.0,-1380.0,-103.0,0.0,-103.0,,-103.0,-412.0,,,,,,0.0
0.0249,0.03624072295084633,-0.104,0.038,0.048,0.49799999999999994,-0.8771000000000001,0.031410030245130297,-0.91,-0.886,-0.784,-17.542,0.5041,0.023803151051909062,0.476,0.497,0.568,10.081999999999999,,,,,,0.0,-68.8,2.3151673805580453,-72.0,-68.0,-66.0,-1376.0,,,,,,0.0,,,,,,0.0
0.12700000000000003,0.1357460864997588,0.014,0.061,0.498,2.5400000000000005,-0.8615999999999999,0.1386731408745039,-1.23,-0.879,-0.558,-17.232,0.5426,0.09094415869092416,0.472,0.499,0.752,10.852,,,,,,0.0,-71.0,1.4142135623730951,-73.0,-71.0,-69.0,-1420.0,,,,,,0.0,,,,,,0.0
0.17070000000000002,0.25798238311946803,-0.206,0.106,0.792,3.414,-0.20559999999999995,0.5624978577736985,-1.86,-0.158,1.44,-4.111999999999999,0.9959999999999999,0.48678578450895627,0.398,0.9319999999999999,2.958,19.919999999999998,,,,,,0.0,-71.4,4.223742416388576,-79.0,-69.0,-68.0,-1428.0,-96.5,1.5,-98.0,,-95.0,-772.0,,,,,,0.0
0.3545,0.31037324304778596,-0.144,0.349,0.914,7.09,-0.5834,0.3809703925503923,-1.502,-0.551,0.322,-11.668000000000001,0.9253,0.24534324934670607,0.674,0.854,1.558,18.506,,,,,,0.0,-67.6,2.2449944320643644,-71.0,-68.0,-64.0,-1352.0,,,,,,0.0,,,,,,0.0
-0.25680000000000003,0.026072207424765553,-0.314,-0.253,-0.218,-5.136,0.4276,0.2805342046881271,-0.392,0.56,0.638,8.552,0.7273999999999999,0.09564538671572195,0.494,0.753,0.846,14.547999999999998,,,,,,0.0,-72.0,3.847076812334269,-79.0,-72.0,-68.0,-1440.0,,,,,,0.0,,,,,,0.0
-0.15679999999999997,0.309779534508011,-0.44,-0.29000000000000004,0.812,-3.1359999999999992,-0.19330000000000003,0.9723903074383249,-2.826,0.198,0.68,-3.8660000000000005,0.6853999999999999,0.2969047658761981,0.278,0.7310000000000001,1.452,13.707999999999998,,,,,,0.0,-69.2,3.54400902933387,-74.0,-70.0,-63.0,-1384.0,-98.0,0.0,-98.0,,-98.0,-392.0,,,,,,0.0
0.7592000000000001,0.28769386507188505,0.072,0.768,1.238,15.184000000000001,-0.4559,0.21044189221730542,-0.844,-0.441,-0.11,-9.118,0.4590000000000001,0.12098346994527805,0.32,0.425,0.734,9.180000000000001,,,,,,0.0,-71.8,1.4696938456699067,-74.0,-71.0,-70.0,-1436.0,-99.0,0.0,-99.0,,-99.0,-396.0,,,,,,0.0
0.9161000000000001,0.052886576746845715,0.838,0.904,1.062,18.322000000000003,-0.3781,0.03969622148265499,-0.424,-0.38,-0.276,-7.562,0.24269999999999997,0.07075669579622836,0.15,0.213,0.414,4.853999999999999,,,,,,0.0,-66.2,1.9390719429665317,-69.0,-66.0,-63.0,-1324.0,,,,,,0.0,,,,,,0.0
0.8822999999999999,0.031453298714125374,0.83,0.879,0.944,17.645999999999997,-0.3534,0.035242587873196826,-0.418,-0.352,-0.306,-7.068,0.31410000000000005,0.04025158381977037,0.252,0.306,0.384,6.282000000000001,,,,,,0.0,-70.4,4.673328578219169,-76.0,-68.0,-65.0,-1408.0,,,,,,0.0,,,,,,0.0
0.9029999999999999,0.038421348232460566,0.862,0.898,1.026,18.06,-0.3662000000000001,0.07597868122045814,-0.462,-0.376,-0.126,-7.324000000000002,0.24980000000000008,0.05825083690385916,0.172,0.235,0.466,4.996000000000001,,,,,,0.0,-72.8,0.39999999999999997,-73.0,-73.0,-72.0,-1456.0,,,,,,0.0,,,,,,0.0
0.8540999999999999,0.1109170410712439,0.596,0.891,1.102,17.081999999999997,-0.3275,0.0795634966551873,-0.516,-0.326,-0.176,-6.550000000000001,0.17460000000000003,0.04701106252787742,0.08,0.182,0.242,3.4920000000000004,,,,,,0.0,-71.4,1.624807680927192,-73.0,-72.0,-69.0,-1428.0,,,,,,0.0,,,,,,0.0
0.9987000000000001,0.11524109510066274,0.792,1.008,1.152,19.974000000000004,-0.34349999999999997,0.0846684711093805,-0.51,-0.348,-0.186,-6.869999999999999,-0.041999999999999996,0.10547795978307507,-0.226,-0.019,0.104,-0.84,,,,,,0.0,-66.8,1.3266499161421597,-69.0,-67.0,-65.0,-1336.0,,,,,,0.0,,,,,,0.0
0.9391999999999999,0.05041587051712982,0.866,0.925,1.038,18.784,-0.3415,0.03802038926681314,-0.416,-0.34299999999999997,-0.282,-6.83,-0.05469999999999999,0.08313428895467861,-0.18,-0.063,0.066,-1.0939999999999999,,,,,,0.0,-69.8,2.039607805437114,-72.0,-70.0,-66.0,-1396.0,,,,,,0.0,,,,,,0.0
0.9128999999999999,0.014006784070585239,0.888,0.916,0.936,18.258,-0.3537,0.01594082808388573,-0.388,-0.352,-0.324,-7.074,-0.0522,0.04012430684759551,-0.116,-0.043,-0.004,-1.044,,,,,,0.0,-70.0,0.8944271909999159,-71.0,-70.0,-69.0,-1400.0,,,,,,0.0,,,,,,0.0
0.9718,0.09115678800835403,0.888,0.928,1.18,19.436,-0.37710000000000005,0.018498378307300348,-0.42,-0.378,-0.35,-7.542000000000001,-0.036199999999999996,0.030586925311315617,-0.068,-0.041,0.044,-0.724,,,,,,0.0,-69.4,1.0198039027185568,-71.0,-69.0,-68.0,-1388.0,,,,,,0.0,,,,,,0.0
0.8664999999999999,0.19025443490231708,0.488,0.917,1.152,17.33,-0.3498,0.11607566497763432,-0.57,-0.34199999999999997,-0.168,-6.9959999999999996,0.1854,0.12830448160528143,0.048,0.125,0.492,3.708,,,,,,0.0,-69.6,2.4166091947189146,-74.0,-69.0,-67.0,-1392.0,,,,,,0.0,,,,,,0.0
0.8882999999999999,0.04341555020957353,0.832,0.879,0.974,17.766,-0.39380000000000004,0.08652144242903027,-0.608,-0.383,-0.274,-7.876000000000001,0.23590000000000005,0.11428818836607746,0.158,0.19,0.63,4.718000000000001,,,,,,0.0,-71.2,0.7483314773547882,-72.0,-71.0,-70.0,-1424.0,,,,,,0.0,,,,,,0.0
0.9099999999999999,0.02047437422731156,0.87,0.909,0.962,18.2,-0.33920000000000006,0.05626508686565764,-0.424,-0.349,-0.208,-6.784000000000001,0.24440000000000003,0.02627241899787685,0.206,0.241,0.304,4.888000000000001,,,,,,0.0,-70.0,0.6324555320336759,-71.0,-70.0,-69.0,-1400.0,,,,,,0.0,,,,,,0.0
0.8712000000000002,0.07654645648232189,0.638,0.878,1.008,17.424000000000003,-0.3689,0.14243521334276857,-0.672,-0.398,-0.09,-7.378,0.16799999999999998,0.08961473093191767,-0.02,0.154,0.38,3.36,,,,,,0.0,-66.0,3.7416573867739413,-71.0,-67.0,-60.0,-1320.0,,,,,,0.0,,,,,,0.0
0.7034,0.21586486513557507,0.37,0.618,1.34,14.068,-0.4591999999999999,0.20379931305085403,-0.872,-0.494,0.12,-9.183999999999997,0.5867,0.3702238647089083,-0.092,0.7210000000000001,1.222,11.734,,,,,,0.0,-65.6,2.727636339397171,-68.0,-67.0,-61.0,-1312.0,,,,,,0.0,,,,,,0.0
0.7829,0.2211881325930485,0.414,0.7949999999999999,1.254,15.658000000000001,-0.47539999999999993,0.2937400891945122,-0.962,-0.525,-0.026,-9.508,0.34609999999999996,0.17255778742206912,0.1,0.358,0.686,6.922,,,,,,0.0,-66.4,3.6660605559646724,-70.0,-69.0,-61.0,-1328.0,,,,,,0.0,,,,,,0.0
0.9192631578947369,0.05732717010400012,0.846,0.918,1.056,17.466,-0.23842105263157895,0.13159199935265367,-0.41,-0.226,0.03,-4.53,0.24884210526315792,0.09549938724404948,0.12,0.254,0.51,4.728000000000001,,,,,,0.0,-68.0,2.635786110641877,-72.0,-68.0,-64.0,-1292.0,,,,,,0.0,,,,,,0.0
0.9181000000000001,0.06152227238976141,0.862,0.91,1.164,18.362000000000002,-0.3563,0.07356160683400002,-0.462,-0.376,-0.122,-7.126,0.21610000000000001,0.12163136930907256,0.078,0.202,0.668,4.322,,,,,,0.0,-69.7,1.7058722109231979,-72.0,-70.0,-64.0,-1394.0,,,,,,0.0,,,,,,0.0
0.9318,0.0454088097179391,0.876,0.913,1.072,18.636,-0.30210000000000004,0.05293571573144166,-0.352,-0.323,-0.158,-6.042000000000001,0.24089999999999998,0.031077162032592358,0.184,0.241,0.316,4.818,,,,,,0.0,-69.55,1.0712142642814273,-70.0,-70.0,-67.0,-1391.0,,,,,,0.0,,,,,,0.0
0.40969999999999995,0.3005024292747065,-0.018,0.348,0.96,8.193999999999999,-0.7651999999999999,0.2444090014708951,-1.202,-0.7809999999999999,-0.402,-15.303999999999998,0.34730000000000005,0.12577324834796946,0.21,0.326,0.678,6.946000000000001,,,,,,0.0,-68.8,2.6381811916545836,-72.0,-67.0,-66.0,-1376.0,,,,,,0.0,,,,,,0.0
0.8399000000000001,0.26385334941971084,0.23,0.81,1.278,16.798000000000002,-0.40360000000000007,0.18257338250687039,-0.77,-0.41000000000000003,-0.036,-8.072000000000001,0.5959999999999999,0.4163080590139951,-0.09,0.643,1.624,11.919999999999998,,,,,,0.0,-64.45,1.2835497652993435,-67.0,-65.0,-63.0,-1289.0,,,,,,0.0,,,,,,0.0
0.8057000000000001,0.18017910533688417,0.498,0.871,1.032,16.114,-0.4951,0.1134785882887164,-0.676,-0.489,-0.26,-9.902,0.10469999999999999,0.09906215220759138,-0.1,0.121,0.254,2.094,-102.0,0.0,-102.0,,-102.0,-408.0,-71.4,3.583294573433783,-78.0,-71.0,-66.0,-1428.0,,,,,,0.0,,,,,,0.0
0.8689,0.024095435252346056,0.83,0.87,0.91,17.378,-0.4032,0.10128652427643077,-0.752,-0.382,-0.288,-8.064,0.2238,0.1010542428599611,0.062,0.202,0.48,4.476,,,,,,0.0,-69.0,0.6324555320336759,-70.0,-69.0,-68.0,-1380.0,,,,,,0.0,,,,,,0.0
0.8945,0.011968709203585835,0.856,0.896,0.912,14.312,-0.391125,0.018041185520912974,-0.424,-0.389,-0.354,-6.258,0.22462500000000002,0.017330879233322233,0.2,0.222,0.284,3.5940000000000003,,,,,,0.0,-69.5625,0.8637671850678283,-71.0,-69.0,-69.0,-1113.0,,,,,,0.0,,,,,,0.0
0.9267999999999998,0.03286578768263433,0.88,0.915,0.974,18.535999999999998,-0.3238,0.07474730764382086,-0.41,-0.359,-0.208,-6.476,0.20329999999999998,0.034019259251194756,0.126,0.216,0.242,4.066,,,,,,0.0,-67.95,2.9064583258667245,-71.0,-69.0,-63.0,-1359.0,,,,,,0.0,,,,,,0.0
0.8895000000000002,0.051497087296273364,0.806,0.901,0.976,17.790000000000003,-0.3734,0.09591683898044182,-0.558,-0.333,-0.26,-7.468,0.24619999999999997,0.07286123798014964,0.108,0.255,0.352,4.9239999999999995,,,,,,0.0,-76.25,9.771770566279173,-97.0,-76.0,-66.0,-1525.0,-96.0,0.0,-96.0,,-96.0,-384.0,,,,,,0.0
0.8842000000000001,0.12432843600721437,0.716,0.884,1.206,17.684,-0.2935,0.15351074880932605,-0.504,-0.292,0.06,-5.87,0.2076,0.133429531963505,0.032,0.185,0.498,4.152,,,,,,0.0,-78.0,5.176871642217914,-97.0,-76.0,-73.0,-1560.0,,,,,,0.0,,,,,,0.0
0.9732,0.41122568013196836,0.552,0.849,2.038,19.464,0.02140000000000002,0.5655146682447768,-0.996,0.056,1.798,0.4280000000000004,-0.077,0.2226185077660885,-0.366,-0.10700000000000001,0.414,-1.54,,,,,,0.0,-69.5,2.5592967784139455,-73.0,-70.0,-66.0,-1390.0,,,,,,0.0,,,,,,0.0
0.4572000000000001,0.23648627867172337,0.054,0.49,0.934,9.144000000000002,-0.21870000000000003,0.3328490799146063,-1.118,-0.20500000000000002,0.374,-4.3740000000000006,0.8361000000000001,0.32185119232340903,0.236,0.765,1.746,16.722,,,,,,0.0,-70.6,4.498888751680798,-75.0,-74.0,-65.0,-1412.0,-103.0,0.0,-103.0,,-103.0,-412.0,,,,,,0.0
-0.087,0.19665045130891515,-0.37,-0.11699999999999999,0.344,-1.74,-0.5569,0.21578088423213027,-1.288,-0.486,-0.33,-11.138,0.8738999999999999,0.2044108363076674,0.546,0.896,1.404,17.477999999999998,,,,,,0.0,-73.7,4.594562003064057,-82.0,-73.0,-69.0,-1474.0,,,,,,0.0,,,,,,0.0
-0.18280000000000002,0.10752748485852351,-0.328,-0.196,0.012,-3.656,-0.4627,0.11362618536235387,-0.648,-0.44,-0.282,-9.254,0.8986000000000003,0.053209397666201794,0.784,0.896,1.01,17.972000000000005,,,,,,0.0,-70.05,1.4991664350564948,-73.0,-70.0,-68.0,-1401.0,,,,,,0.0,,,,,,0.0
0.09380000000000001,0.2593537352728894,-0.302,0.05,0.546,1.8760000000000001,-0.5103,0.22097445553728604,-0.912,-0.538,-0.03,-10.206,0.9193,0.2015462974107934,0.432,0.95,1.22,18.386,,,,,,0.0,-70.25,3.884263121880391,-79.0,-69.0,-67.0,-1405.0,,,,,,0.0,,,,,,0.0
-0.4645,0.2186823038108022,-0.84,-0.465,0.268,-9.290000000000001,0.3067,0.5662654059714401,-0.818,0.381,0.92,6.1339999999999995,0.5336000000000001,0.6341623136074865,-0.27,0.519,1.74,10.672,,,,,,0.0,-68.3,3.333166662499792,-79.0,-67.0,-65.0,-1366.0,-99.36363636363636,1.2984415324623362,-101.0,,-98.0,-1093.0,,,,,,0.0
-0.41412499999999997,0.2766102571760491,-1.01,-0.459,0.092,-6.6259999999999994,0.8296250000000001,0.30200100889732134,0.546,0.785,1.744,13.274000000000001,0.08712500000000001,0.1880757410592871,-0.442,0.122,0.36,1.3940000000000001,,,,,,0.0,-73.625,5.9041828393097715,-81.0,-70.0,-65.0,-1178.0,-94.25,3.112474899497183,-99.0,,-90.0,-1131.0,,,,,,0.0
-0.19720000000000001,0.010943491216243564,-0.218,-0.2,-0.174,-3.9440000000000004,0.9144,0.028436596139481945,0.892,0.902,1.006,18.288,-0.14350000000000002,0.05277073052365298,-0.22,-0.133,-0.056,-2.8700000000000006,,,,,,0.0,-79.1,0.8888194417315589,-81.0,-79.0,-78.0,-1582.0,-96.0,0.0,-96.0,,-96.0,-96.0,,,,,,0.0
-0.18860000000000002,0.008788629017087938,-0.202,-0.19,-0.17,-3.7720000000000002,0.901,0.012271919165313967,0.872,0.898,0.92,18.02,-0.18900000000000003,0.011462983904725681,-0.208,-0.194,-0.168,-3.7800000000000007,-100.5,1.5,-102.0,,-99.0,-804.0,-83.7,2.882707061079915,-88.0,-82.0,-81.0,-1674.0,,,,,,0.0,,,,,,0.0
-0.23690000000000003,0.18335481995300806,-0.616,-0.17099999999999999,0.048,-4.738,0.6125,0.5626366056345783,-1.14,0.813,1.206,12.25,0.057699999999999994,0.1940219317499957,-0.154,0.005,0.704,1.154,-99.0,0.0,-99.0,,-99.0,-396.0,-75.5,4.488875137492688,-87.0,-76.0,-70.0,-1510.0,-98.0,4.898979485566356,-104.0,,-92.0,-1176.0,,,,,,0.0
-0.040400000000000005,0.15546781017303873,-0.448,0.022000000000000002,0.152,-0.808,-1.1801,0.3339709418497364,-1.898,-1.052,-0.714,-23.602,0.05220000000000001,0.33314855545236877,-0.34,-0.097,0.808,1.0440000000000003,,,,,,0.0,-80.6,4.17612260356422,-89.0,-81.0,-75.0,-1612.0,,,,,,0.0,,,,,,0.0
